ExperimentName	Subject	Session	Block	AffichageMot2.ACC	ContextSent	CorrResp	ExpectedV	FillerType	HasPronoun	IsAnimate	Item	ItemType	LeftWord	Length	List	N1	N1Type	NumPositions	RightWord	Running	Sentence	Slide1.ACC	Slide1.CRESP	Slide1.RESP	Slide1.RT	SubList	Tense	VerbPosition	Word
XP2List1	101	1	1	0	How much natural light does your new office have?		?	?	?	?	training3	?	is	?	?	?	training	4	are	Entrainement	My $ ficus tree $ thriving $ there.	0		1	1146	?	?	2	 there.
XP2List1	101	1	2	0	Where can I find the keys to the cabinets?		?	?	?	?	training1	?	is	?	?	?	training	5	are	Entrainement	The key $ to $ the cabinets $ in $ the drawer.	0		1	543	?	?	3	 the drawer.
XP2List1	101	1	3	0	Why couldn't you park your car inside last night?		?	?	?	?	training4	?	was	?	?	?	training	4	were	Entrainement	Some $ wooden table $ in $ the garage.	0		3	1762	?	?	2	 the garage.
XP2List1	101	1	4	0	What did you like best about living in New England?		?	?	?	?	training2	?	was	?	?	?	training	4	were	Entrainement	The leaves $ in the $ fall $ beautiful.	0		3	672	?	?	3	 beautiful.
XP2List1	101	1	5	0	Where are the vicious rodents now?	3	Vpl	RC	0	0	36	filler	is	filler	0	filler	filler	6	are	Part1	Two $ squirrels $ that attacked $ a chipmunk $ in $ the oak.	1	3	3	548	a	present	4	 the oak.
XP2List1	101	1	6	0	Was it the dry leaves that Roberto was raking?	3	Vpl	RC	0	0	37	filler	was	filler	0	filler	filler	6	were	Part1	The grass $ clippings $ what $ Roberto $ was raking $ yesterday.	1	3	3	675	a	past	2	 yesterday.
XP2List1	101	1	7	0	How will your wife spend the evening while you're away?	1	Vsg	MA	0	0	69	filler	is	filler	0	filler	filler	4	are	Part1	Martina $ going $ to a $ jazz concert.	1	1	1	732	a	present	1	 jazz concert.
XP2List1	101	1	8	0	Does Rachel have anything, like notepads, to write a message on?	3	Vpl	test	0	0	19	test	is	short	1	couple	measure	3	are	Part1	A couple $ by $ the telephone.	1	3	3	1057	a	present	1	 the telephone.
XP2List1	101	1	9	0	Do you have anything to help with my fever, like pills?	3	Vsg	test	1	0	3	test	is	short	1	bottle	containers	3	are	Part1	A bottle $ by $ the tissues.	0	3	1	907	a	present	1	 the tissues.
XP2List1	101	1	10	0	Was the winter accessory you borrowed comfortable?	1	Vsg	RC	0	0	49	filler	was	filler	0	filler	filler	5	were	Part1	The scarf $ that $ Laura knitted $ warm $ but itchy.	1	1	1	750	a	past	3	 but itchy.
XP2List1	101	1	11	0	Do we know why we couldn't go back to library?	1	Vsg	RC	0	0	45	filler	was	filler	0	filler	filler	4	were	Part1	One DVD $ that $ Kayleigh borrowed $ past due.	1	1	1	838	a	past	3	 past due.
XP2List1	101	1	12	0	What was the state of preparations when you left?	3	Vpl	MA	0	0	84	filler	was	filler	0	filler	filler	6	were	Part1	The masons $ Steve $ and Melinda $ stacking bricks $ at the $ construction site.	1	3	3	711	a	past	3	 construction site.
XP2List1	101	1	13	0	Does Lisa have any information to give renters about the apartment complex?	1	Vpl	test	0	0	29	test	is	long	1	several	quant	3	are	Part1	Several pamphlets $ in the $ front office.	0	1	3	923	a	present	1	 front office.
XP2List1	101	1	14	0	How did Michaela and Frank not see the racoon in their backyard?	3	Vpl	MA	0	0	72	filler	is	filler	0	filler	filler	6	are	Part1	They $ watching $ a small $ squirrel $ in $ a tree.	1	3	3	680	a	present	1	 a tree.
XP2List1	101	1	15	0	Do you have a reason for switching to the new typesetting program?	1	Vsg	Simple	0	0	61	filler	was	filler	0	filler	filler	4	were	Part1	This $ word processor $ known to $ crash often.	1	1	1	585	a	past	2	 crash often.
XP2List1	101	1	16	0	Do they have any food, some sandwiches maybe, for the guests to eat?	3	Vsg	test	1	0	11	test	is	short	1	stack	collections	3	are	Part1	A stack $ on the $ serving platter.	0	3	1	534	a	present	1	 serving platter.
XP2List1	101	1	17	0	Who was your favorite customer today at the toystore?	1	Vsg	MA	0	0	77	filler	was	filler	0	filler	filler	7	were	Part1	The new $ grandpa Olaf $ looking for $ a cute $ teddy bear $ for his $ granddaughter.	1	1	1	789	a	past	2	 granddaughter.
XP2List1	101	1	18	0	What made everyone on Sesame Street so sad?	1	Vsg	Simple	0	0	89	filler	was	filler	0	filler	filler	7	were	Part1	Neither $ Bert nor $ Ernie $ able $ to find $ the rubber $ ducky.	1	1	1	787	a	past	3	 ducky.
XP2List1	101	1	19	0	Do they have anything to serve the coffee in, like mugs?	3	Vpl	test	1	0	23	test	is	short	1	variety	measure	3	are	Part1	A variety $ in $ the dishwasher.	1	3	3	1170	a	present	1	 the dishwasher.
XP2List1	101	1	20	0	Why can't we finish the installation today?	1	Vsg	Simple	0	0	93	filler	is	filler	0	filler	filler	3	are	Part1	This cable $ two meters $ too short.	1	1	1	705	a	present	1	 too short.
XP2List1	101	1	21	0	Does she have any extra hockey equipment to bring to practice?	1	Vsg	test	1	0	9	test	is	long	1	pile	collections	5	are	Part1	A pile $ of $ pucks $ beside the $ hockey mask.	0	1	3	439	a	present	3	 hockey mask.
XP2List1	101	1	22	0	What is causing all this uproar at the sweet sixteen party?	1	Vsg	MA	0	0	65	filler	is	filler	0	filler	filler	5	are	Part1	The $ birthday girl $ Andrea $ receiving an $ expensive gift.	1	1	1	482	a	present	3	 expensive gift.
XP2List1	101	1	23	0	What made Yi so upset?	1	Vsg	RC	0	0	52	filler	is	filler	0	filler	filler	7	are	Part1	The upholstery $ that $ she $ just cleaned $ now covered $ in $ her milkshake.	1	1	1	403	a	present	4	 her milkshake.
XP2List1	101	1	24	0	How do you ensure the children are safe?	3	Vpl	Simple	0	0	92	filler	is	filler	0	filler	filler	5	are	Part1	Electrical sockets $ always $ covered $ in the $ playroom.	1	3	3	859	a	present	1	 playroom.
XP2List1	101	1	25	0	How has Susanne spent the last few months?	1	Vsg	MA	0	0	81	filler	was	filler	0	filler	filler	4	were	Part1	The documentarian $ shooting $ a long, $ boring film.	1	1	1	813	a	past	1	 boring film.
XP2List1	101	1	26	0	Has the lost heirloom been found yet?	1	Vsg	RC	0	0	48	filler	is	filler	0	filler	filler	5	are	Part1	The watch $ that $ Liz inherited $ still $ missing today.	1	1	1	571	a	present	3	 missing today.
XP2List1	101	1	27	0	Why has the laptop been running since yesterday?	3	Vpl	RC	0	0	40	filler	is	filler	0	filler	filler	5	are	Part1	The computer $ simulations $ that ran $ all night $ complex.	1	3	3	545	a	present	4	 complex.
XP2List1	101	1	28	0	Do we have any desserts to look forward to at the potluck?	1	Vpl	test	1	0	25	test	is	long	1	all	quant	3	are	Part1	All pies $ in $ the refrigerator.	0	1	3	520	a	present	1	 the refrigerator.
XP2List1	101	1	29	0	What caused the delay at the construction site?	3	Vpl	Simple	0	0	53	filler	was	filler	0	filler	filler	4	were	Part1	Two surveyors $ carefully $ packing up $ their equipment.	1	3	3	782	a	past	1	 their equipment.
XP2List1	101	1	30	0	What are the former members of the jazz group up to now?	3	Vpl	MA	0	0	68	filler	is	filler	0	filler	filler	5	are	Part1	The pianists $ Alexander $ and Ginnie $ learning $ classical sonatas.	1	3	3	459	a	present	3	 classical sonatas.
XP2List1	101	1	31	0	Do we have anyone, like onlookers, to give a written testimony on the car accident?	3	Vsg	test	1	1	15	test	is	short	1	crowd	collections	3	are	Part1	A crowd $ across $ the street.	0	3	1	480	a	present	1	 the street.
XP2List1	101	1	32	0	How has working in the warehouse changed Lucius?	3	Vpl	Simple	0	0	96	filler	is	filler	0	filler	filler	6	are	Part1	Dark $ storage boxes $ all $ he $ dreams about $ anymore.	1	3	3	511	a	present	2	 anymore.
XP2List1	101	1	33	0	Do you have anything to juggle around here?	1	Vsg	test	1	0	1	test	is	long	1	tube	containers	5	are	Part1	A tube $ of $ balls $ by the $ tennis racket.	0	1	3	417	a	present	3	 tennis racket.
XP2List1	101	1	34	0	Did you notice any patterns in the exam results?	3	Vpl	RC	0	0	41	filler	was	filler	0	filler	filler	5	were	Part1	Many students $ who $ turned in $ the test $ inattentive.	1	3	3	690	a	past	4	 inattentive.
XP2List1	101	1	35	0	Do you have any candy or gumdrops to tide me over until dinner?	3	Vsg	test	1	0	7	test	is	short	1	dish	containers	3	are	Part1	A dish $ on the $ end table.	0	3	1	1072	a	present	1	 end table.
XP2List1	101	1	36	0	Have you read anything interesting on the NASA website lately?	1	Vsg	Simple	0	0	64	filler	is	filler	0	filler	filler	5	are	Part1	Another $ asteroid $ expected to $ miss Earth $ this week.	1	1	1	615	a	present	2	 this week.
XP2List1	101	1	37	0	What were the academics doing in the cafe?	3	Vpl	MA	0	0	76	filler	was	filler	0	filler	filler	6	were	Part1	The professors $ Henry $ and Hilary $ reading $ a philosophical $ tome.	1	3	3	587	a	past	3	 tome.
XP2List1	101	1	38	0	Does Nathan have anything, like pans, to catch the dripping water from the leaky roof?	3	Vpl	test	0	0	31	test	is	short	1	both	quant	3	are	Part1	Both $ on $ the range.	1	3	3	789	a	present	1	 the range.
XP2List1	101	1	39	0	Does Lila have anything to remind her of her travels?	1	Vpl	test	0	0	17	test	is	long	1	lot	measure	5	are	Part1	A lot $ of $ postcards $ in the $ desk drawer.	0	1	3	476	a	present	3	 desk drawer.
XP2List1	101	1	40	0	Who had been assigned to catch the murders?	3	Vpl	RC	0	0	33	filler	was	filler	0	filler	filler	6	were	Part1	The detectives $ who $ had done $ many investigations $ on $ the case.	1	3	3	783	a	past	4	 the case.
XP2List1	101	1	41	0	Why do you think the meat shop was so clean all the time?	1	Vsg	Simple	0	0	85	filler	was	filler	0	filler	filler	5	were	Part1	The butcher $ fanatical about $ keeping flies $ off $ the meat.	1	1	1	619	a	past	1	 the meat.
XP2List1	101	1	42	0	Do you have anything to mend the tear in my shirt?	1	Vsg	test	1	0	5	test	is	long	1	matchbox	containers	5	are	Part1	A matchbox $ of $ needles $ by the $ sewing machine.	1	1	1	321	a	present	3	 sewing machine.
XP2List1	101	1	43	0	Why did one student get points taken off his essay?	1	Vsg	RC	0	0	44	filler	is	filler	0	filler	filler	6	are	Part1	The author $ that Russell $ cited $ thought $ to be $ a fraud.	1	1	1	452	a	present	3	 a fraud.
XP2List1	101	1	44	0	Does Uncle Roger have any valuables in his home to insure?	1	Vsg	test	0	0	13	test	is	long	1	collection	collections	5	are	Part1	A collection $ of $ coins $ on the $ closet shelf.	1	1	1	433	a	present	3	 closet shelf.
XP2List1	101	1	45	0	Does Barbara have anything to file these documents in?	1	Vpl	test	0	0	21	test	is	long	1	bunch	measure	5	are	Part1	A bunch $ of $ folders $ on $ the shelf.	0	1	3	411	a	present	3	 the shelf.
XP2List1	101	1	46	0	What will we put in the salad?	1	Vsg	Simple	0	0	60	filler	is	filler	0	filler	filler	4	are	Part1	Half $ of $ the lettuce $ already wilted.	1	1	1	534	a	present	3	 already wilted.
XP2List1	101	1	47	0	How did you find out the couple were expecting a baby?	3	Vpl	MA	0	0	80	filler	was	filler	0	filler	filler	5	were	Part1	Sven and $ Paula $ picking out $ a jogging $ stroller.	1	3	3	646	a	past	2	 stroller.
XP2List1	101	1	48	0	Why couldn't Bill and Randy receive text messages?	3	Vpl	Simple	0	0	88	filler	was	filler	0	filler	filler	7	were	Part1	After being $ dropped, $ their $ cell phones $ never $ the same $ again.	1	3	3	647	a	past	4	 again.
XP2List1	101	1	49	0	What startled the backpackers out of their slumber?	3	Vpl	Simple	0	0	57	filler	was	filler	0	filler	filler	5	were	Part1	Numerous $ coyotes $ heard howling $ in $ the canyon.	1	3	3	681	a	past	2	 the canyon.
XP2List1	101	1	50	0	Who is planning a celebration for whom?	1	Vsg	MA	0	0	73	filler	is	filler	0	filler	filler	8	are	Part1	The $ house guest $ Roberta $ planning $ a birthday $ party $ for $ her host.	1	1	1	387	a	present	3	 her host.
XP2List1	101	1	51	0	Does John have anything left to munch on, like chips, during the second half?	3	Vpl	test	0	0	27	test	is	short	1	more	quant	4	are	Part1	More $ on $ the dining $ room table.	0	3	1	538	a	present	1	 room table.
XP2List1	101	1	52	0	Why is the meeting with management taking so long?	3	Vpl	Simple	0	0	56	filler	is	filler	0	filler	filler	4	are	Part1	The union $ organizers $ fighting for $ better wages.	1	3	3	506	a	present	2	 better wages.
XP2List1	101	1	53	0	What were the kids doing before the rain started?	3	Vpl	MA	0	0	82	filler	was	filler	0	filler	filler	5	were	Part2	The $ fifth graders $ Julian and $ Richard $ playing tag.	1	3	3	944	b	past	4	 playing tag.
XP2List1	101	1	54	0	Do we have anything to give to charity this December?	1	Vsg	test	1	0	10	test	was	long	1	heap	collections	5	were	Part2	A heap $ of $ blankets $ in $ the closet.	1	1	1	1418	b	past	3	 the closet.
XP2List1	101	1	55	0	Do they have any old timepieces in this store to sell at auction?	1	Vpl	test	1	0	26	test	was	long	1	many	quant	3	were	Part2	Many clocks $ in the $ antiques department.	0	1	3	608	b	past	1	 antiques department.
XP2List1	101	1	56	0	Do you forsee any problems for today's pottery class?	1	Vsg	RC	0	0	50	filler	is	filler	0	filler	filler	7	are	Part2	A pot $ that $ Rachel $ about to $ glaze $ is $ already cracked.	1	1	1	592	b	present	3	 already cracked.
XP2List1	101	1	57	0	How are the adventurous newly-weds spending their honeymoon?	3	Vpl	MA	0	0	66	filler	is	filler	0	filler	filler	5	are	Part2	Julia and $ George $ exploring $ a remote $ valley.	1	3	3	528	b	present	2	 valley.
XP2List1	101	1	58	0	What does the forecast look like?	3	Vpl	Simple	0	0	94	filler	is	filler	0	filler	filler	5	are	Part2	Two $ inches of $ snow $ predicted $ for tonight.	0	3	1	538	b	present	3	 for tonight.
XP2List1	101	1	59	0	Does Grandpa have any childhood mementos, like pictures, to show us?	3	Vsg	test	0	0	4	test	was	short	1	shoebox	containers	3	were	Part2	A shoebox $ in $ the attic.	0	3	1	771	b	past	1	 the attic.
XP2List1	101	1	60	0	Does Trevor have any sports equipment, baseballs for example, around here?	3	Vpl	test	0	0	32	test	was	short	1	five	quant	3	were	Part2	Five $ in $ the bag.	1	3	3	1235	b	past	1	 the bag.
XP2List1	101	1	61	0	Do we have any artwork, any paintings, perhaps, to sell at the flea market?	3	Vpl	test	1	0	28	test	was	short	1	some	quant	2	were	Part2	Some $ in storage.	1	3	3	766	b	past	1	 in storage.
XP2List1	101	1	62	0	Do you have any livestock, like llamas, to show the second graders on their visit to the farm?	3	Vsg	test	1	1	12	test	was	short	1	group	collections	3	were	Part2	A group $ across $ the pasture.	1	3	3	910	b	past	1	 the pasture.
XP2List1	101	1	63	0	Why is Tanya typing so furiously at her computer?	1	Vsg	MA	0	0	71	filler	is	filler	0	filler	filler	4	are	Part2	She $ creating $ a new $ computer game.	1	1	1	686	b	present	1	 computer game.
XP2List1	101	1	64	0	Do we have any evidence the vermin poison is working?	3	Vpl	RC	0	0	42	filler	is	filler	0	filler	filler	6	are	Part2	Some mice $ that $ Amanda found $ in the $ shed $ sick.	1	3	3	419	b	present	5	 sick.
XP2List1	101	1	65	0	What are the kids doing in the den?	3	Vpl	MA	0	0	74	filler	is	filler	0	filler	filler	5	are	Part2	Sofia and $ Kyle $ folding $ a small $ paper boat.	1	3	3	954	b	present	2	 paper boat.
XP2List1	101	1	66	0	Are the yipping dogs already fully grown? 	3	Vpl	RC	0	0	34	filler	is	filler	0	filler	filler	5	are	Part2	Those $ schnauzers $ that chased $ Nicholas $ still puppies.	1	3	3	595	b	present	4	 still puppies.
XP2List1	101	1	67	0	Who is playing the next three songs?	1	Vsg	Simple	0	0	91	filler	is	filler	0	filler	filler	5	are	Part2	Either Fumiko $ or Ed $ scheduled $ to perform $ next.	0	1	3	536	b	present	2	 next.
XP2List1	101	1	68	0	Do they have anything to read while we wait?	1	Vpl	test	1	0	22	test	was	long	1	smattering	measure	5	were	Part2	A smattering $ of $ magazines $ in $ the basement.	0	1	3	811	b	past	3	 the basement.
XP2List1	101	1	69	0	Do the Carlisles have any dinnerware to bring to the picnic?	1	Vsg	test	0	0	6	test	was	long	1	tub	containers	5	were	Part2	A tub $ of $ dishes $ by $ the dishwasher.	0	1	3	1055	b	past	3	 the dishwasher.
XP2List1	101	1	70	0	What made you change your mind about buying the 4x4?	3	Vpl	Simple	0	0	58	filler	is	filler	0	filler	filler	5	are	Part2	Pick-up $ trucks $ not known $ for fuel $ efficiency.	1	3	3	693	b	present	2	 efficiency.
XP2List1	101	1	71	0	Hasn't anyone cleaned around here today?	3	Vpl	RC	0	0	38	filler	is	filler	0	filler	filler	5	are	Part2	These $ picture frames $ that $ Yanina bought $ quite dusty.	1	3	3	555	b	present	4	 quite dusty.
XP2List1	101	1	72	0	What is the fertilizer doing there in the garden?	1	Vsg	MA	0	0	75	filler	was	filler	0	filler	filler	6	were	Part2	The gardener $ Ted $ planting $ a rosebush $ by $ the begonias.	1	1	1	981	b	past	2	 the begonias.
XP2List1	101	1	73	0	Do you know what that fancy couple you know is doing tonight?	3	Vpl	MA	0	0	70	filler	is	filler	0	filler	filler	7	are	Part2	The epicures $ Gary and $ Victoria $ sharing $ a fine $ wine $ with friends.	1	3	3	449	b	present	3	 with friends.
XP2List1	101	1	74	0	Do they have anything, like matches, to light these candles with?	3	Vsg	test	1	0	8	test	was	short	1	pack	containers	3	were	Part2	A pack $ in the $ game room.	0	3	1	815	b	past	1	 game room.
XP2List1	101	1	75	0	Do you know what type of firewood we'll have?	1	Vsg	RC	0	0	47	filler	was	filler	0	filler	filler	5	were	Part2	One $ tree $ that $ Katie felled $ a pine.	1	1	1	847	b	past	4	 a pine.
XP2List1	101	1	76	0	How hard will it be to get my car running again?	1	Vsg	Simple	0	0	95	filler	is	filler	0	filler	filler	5	are	Part2	Any trained $ professional $ able $ to repair $ that damage.	1	1	1	512	b	present	2	 that damage.
XP2List1	101	1	77	0	What made the Stevens cry at the airport?	1	Vsg	Simple	0	0	63	filler	was	filler	0	filler	filler	4	were	Part2	Their daughter $ entering $ the $ Peace Corps.	1	1	1	504	b	past	1	 Peace Corps.
XP2List1	101	1	78	0	Does Cecilia have any documentaries to watch this evening?	1	Vsg	test	0	0	14	test	was	long	1	set	collections	5	were	Part2	A set $ of $ DVDs $ by $ the television.	1	1	1	497	b	past	3	 the television.
XP2List1	101	1	79	0	Do we have anyone, like preschoolers, to give this extra ice cream to?	3	Vsg	test	1	1	16	test	was	short	1	troop	collections	3	were	Part2	A troop $ at $ the park	0	3	1	605	b	past	1	 the park
XP2List1	101	1	80	0	Why couldn't Emma study for chemistry in the library?	3	Vpl	RC	0	0	35	filler	was	filler	0	filler	filler	7	were	Part2	The notes $ that $ she brought $ actually $ for $ a different $ class.	1	3	3	544	b	past	3	 class.
XP2List1	101	1	81	0	Why has the supervisor received so many complaints lately?	3	Vpl	Simple	0	0	86	filler	was	filler	0	filler	filler	7	were	Part2	Several workers $ of $ the belief $ that $ their pay $ was $ too low.	1	3	3	782	b	past	1	 too low.
XP2List1	101	1	82	0	What surprised you at the parent-teacher conferences?	1	Vsg	Simple	0	0	87	filler	was	filler	0	filler	filler	7	were	Part2	Not $ a single $ parent $ upset $ by $ the new $ school dresscode.	1	1	1	783	b	past	3	 school dresscode.
XP2List1	101	1	83	0	What caught the biologists' attention?	1	Vsg	Simple	0	0	59	filler	was	filler	0	filler	filler	5	were	Part2	Some green $ lichen $ growing $ on $ the stump.	0	1	3	686	b	past	2	 the stump.
XP2List1	101	1	84	0	Do you have anything, any ties perhaps, to match this shirt and jacket?	3	Vpl	test	1	0	24	test	was	short	1	ton	measure	3	were	Part2	A ton $ on the $ far table.	1	3	3	809	b	past	1	 far table.
XP2List1	101	1	85	0	Where was the guard dog last seen?	1	Vsg	RC	0	0	43	filler	was	filler	0	filler	filler	8	were	Part2	A Doberman $ that $ Marge saw $ in the $ park $ later $ sitting outside $ a bank.	1	1	1	420	b	past	5	 a bank.
XP2List1	101	1	86	0	How did Dianne and Liz end up getting coffee together?	3	Vpl	Simple	0	0	90	filler	was	filler	0	filler	filler	4	were	Part2	They $ realized their $ appointments $ cancelled.	1	3	3	530	b	past	3	 cancelled.
XP2List1	101	1	87	0	Do we have any recipes, in cookbooks maybe, for coffee cake?	3	Vpl	test	1	0	20	test	was	short	1	handful	measure	3	were	Part2	A handful $ in the $ kitchen cabinet.	1	3	3	761	b	past	1	 kitchen cabinet.
XP2List1	101	1	88	0	Did your relative bequeath you anything after her passing?	1	Vsg	Simple	0	0	62	filler	is	filler	0	filler	filler	8	are	Part2	A tattered $ tablecloth $ all $ that $ Aunt Alice $ left us $ in $ her will.	1	1	1	733	b	present	2	 her will.
XP2List1	101	1	89	0	Where was the interior designer when you talked to her on the phone?	1	Vsg	MA	0	0	79	filler	was	filler	0	filler	filler	4	were	Part2	Manuela $ furnishing $ a fancy $ apartment.	1	1	1	787	b	past	1	 apartment.
XP2List1	101	1	90	0	Where is the other cookie that was dropped?	1	Vsg	RC	0	0	46	filler	is	filler	0	filler	filler	6	are	Part2	The cookie $ that $ Oliver dropped $ under $ the $ coffee table.	1	1	1	595	b	present	3	 coffee table.
XP2List1	101	1	91	0	Why was Parker making the OK sign?	1	Vsg	RC	0	0	51	filler	was	filler	0	filler	filler	8	were	Part2	Some $ rubber cement $ that $ he $ using $ was stuck $ on $ his fingers.	1	1	1	567	b	past	4	 his fingers.
XP2List1	101	1	92	0	Do you have anything to carry the groceries home in?	1	Vpl	test	1	0	18	test	was	long	1	number	measure	5	were	Part2	A number $ of $ bags $ in $ the pantry.	0	1	3	655	b	past	3	 the pantry.
XP2List1	101	1	93	0	Don't you think it's strange to see such animals here?	3	Vpl	Simple	0	0	54	filler	is	filler	0	filler	filler	4	are	Part2	Adult caribou $ seldom $ found $ in Montana. 	0	3	1	780	b	present	1	 in Montana. 
XP2List1	101	1	94	0	What were the girls doing when the news arrived?	3	Vpl	MA	0	0	78	filler	was	filler	0	filler	filler	5	were	Part2	Nicole and $ Montana $ playing with $ a new $ dollhouse.	1	3	3	620	b	past	2	 dollhouse.
XP2List1	101	1	95	0	Does Maria have any plants around the house to water?	1	Vsg	test	0	0	2	test	was	long	1	pot	containers	5	were	Part2	A pot $ of $ flowers $ on the $ back porch.	1	1	1	624	b	past	3	 back porch.
XP2List1	101	1	96	0	What was going on outside the rural train station?	3	Vpl	Simple	0	0	55	filler	was	filler	0	filler	filler	6	were	Part2	The $ taxi drivers $ waiting $ impatiently $ for new $ customers.	1	3	3	494	b	past	2	 customers.
XP2List1	101	1	97	0	Do we have anywhere more private to talk?	1	Vpl	test	1	1	30	test	was	long	1	fewer	quant	3	were	Part2	Fewer people $ in $ the courtyard.	0	1	3	656	b	past	1	 the courtyard.
XP2List1	101	1	98	0	Why is the rest of the team jealous?	1	Vsg	MA	0	0	67	filler	is	filler	0	filler	filler	4	are	Part2	Caroline $ training $ with a $ new coach.	1	1	1	451	b	present	1	 new coach.
XP2List1	101	1	99	0	Do we know what was going on backstage?	1	Vsg	MA	0	0	83	filler	was	filler	0	filler	filler	5	were	Part2	The presenter $ Mariko $ busily $ readying her $ slides.	1	1	1	464	b	past	2	 slides.
XP2List1	101	1	100	0	What were the agile beasts seeking?	3	Vpl	RC	0	0	39	filler	was	filler	0	filler	filler	7	were	Part2	The $ mountain goats $ that $ scaled $ the cliff $ searching $ for food.	1	3	3	521	b	past	5	 for food.
XP2List2	102	1	1	0	Where can I find the keys to the cabinets?		?	?	?	?	training1	?	is	?	?	?	training	5	are	Entrainement	The key $ to $ the cabinets $ in $ the drawer.	0		1	3061	?	?	3	 the drawer.
XP2List2	102	1	2	0	Why couldn't you park your car inside last night?		?	?	?	?	training4	?	was	?	?	?	training	4	were	Entrainement	Some $ wooden tables $ in $ the garage.	0		1	3142	?	?	2	 the garage.
XP2List2	102	1	3	0	What did you like best about living in New England?		?	?	?	?	training2	?	was	?	?	?	training	4	were	Entrainement	The leaves $ in the $ fall $ beautiful.	0		3	5959	?	?	3	 beautiful.
XP2List2	102	1	4	0	How much natural light does your new office have?		?	?	?	?	training3	?	is	?	?	?	training	4	are	Entrainement	My $ ficus tree $ certainly thriving $ there.	0		1	2682	?	?	2	 there.
XP2List2	102	1	5	0	Has the lost heirloom been found yet?	1	Vsg	RC	0	0	48	filler	is	filler	0	filler	filler	5	are	Part1	The watch $ that $ Liz inherited $ still $ missing today.	1	1	1	5663	a	present	3	 missing today.
XP2List2	102	1	6	0	Does she have any extra hockey equipment or pucks to bring to practice?	3	Vsg	test	1	0	9	test	is	short	2	pile	collections	3	are	Part1	A pile $ beside the $ hockey mask.	0	3	1	4468	a	present	1	 hockey mask.
XP2List2	102	1	7	0	Why has the laptop been running since yesterday?	3	Vpl	RC	0	0	40	filler	is	filler	0	filler	filler	5	are	Part1	The computer $ simulations $ that ran $ all night $ complex.	1	3	3	5043	a	present	4	 complex.
XP2List2	102	1	8	0	Do they have anything to serve the coffee in?	1	Vpl	test	1	0	23	test	is	long	2	variety	measure	5	are	Part1	A variety $ of $ mugs $ in $ the dishwasher.	0	1	3	1764	a	present	3	 the dishwasher.
XP2List2	102	1	9	0	Do you have anything to help with my fever?	1	Vsg	test	1	0	3	test	is	long	2	bottle	containers	5	are	Part1	A bottle $ of $ pills $ by $ the tissues.	0	1	3	2770	a	present	3	 the tissues.
XP2List2	102	1	10	0	What startled the backpackers out of their slumber?	3	Vpl	Simple	0	0	57	filler	was	filler	0	filler	filler	5	were	Part1	Numerous $ coyotes $ heard howling $ in $ the canyon.	1	3	3	2011	a	past	2	 the canyon.
XP2List2	102	1	11	0	What was the state of preparations when you left?	3	Vpl	MA	0	0	84	filler	was	filler	0	filler	filler	6	were	Part1	The masons $ Steve $ and Melinda $ stacking bricks $ at the $ construction site.	1	3	3	1288	a	past	3	 construction site.
XP2List2	102	1	12	0	Why do you think the meat shop was so clean all the time?	1	Vsg	Simple	0	0	85	filler	was	filler	0	filler	filler	5	were	Part1	The butcher $ fanatical about $ keeping flies $ off $ the meat.	1	1	1	1472	a	past	1	 the meat.
XP2List2	102	1	13	0	Do they have any food for the guests to eat?	1	Vsg	test	1	0	11	test	is	long	2	stack	collections	5	are	Part1	A stack $ of $ sandwiches $ on the $ serving platter.	0	1	3	2634	a	present	3	 serving platter.
XP2List2	102	1	14	0	How did you find out the couple were expecting a baby?	3	Vpl	MA	0	0	80	filler	was	filler	0	filler	filler	5	were	Part1	Sven and $ Paula $ picking out $ a jogging $ stroller.	1	3	3	1300	a	past	2	 stroller.
XP2List2	102	1	15	0	Why did one student get points taken off his essay?	1	Vsg	RC	0	0	44	filler	is	filler	0	filler	filler	6	are	Part1	The author $ that Russell $ cited $ thought $ to be $ a fraud.	1	1	1	2828	a	present	3	 a fraud.
XP2List2	102	1	16	0	Do we know why we couldn't go back to library?	1	Vsg	RC	0	0	45	filler	was	filler	0	filler	filler	4	were	Part1	One DVD $ that $ Kayleigh borrowed $ past due.	1	1	1	1790	a	past	3	 past due.
XP2List2	102	1	17	0	Does Barbara have anything, any folders, to file these documents in?	3	Vpl	test	0	0	21	test	is	short	2	bunch	measure	3	are	Part1	A bunch $ on $ the shelf.	1	3	3	2413	a	present	1	 the shelf.
XP2List2	102	1	18	0	How has Susanne spent the last few months?	1	Vsg	MA	0	0	81	filler	was	filler	0	filler	filler	4	were	Part1	The documentarian $ shooting $ a long, $ boring film.	1	1	1	3370	a	past	1	 boring film.
XP2List2	102	1	19	0	Do we have anyone to give a written testimony on the car accident?	1	Vsg	test	1	1	15	test	is	long	2	crowd	collections	5	are	Part1	A crowd $ of $ onlookers $ across $ the street.	0	1	3	1228	a	present	3	 the street.
XP2List2	102	1	20	0	Do you have anything to mend the tear in my shirt, like needles, for example?	3	Vsg	test	1	0	5	test	is	short	2	matchbox	containers	3	are	Part1	A matchbox $ by the $ sewing machine.	0	3	1	2591	a	present	1	 sewing machine.
XP2List2	102	1	21	0	What will we put in the salad?	1	Vsg	Simple	0	0	60	filler	is	filler	0	filler	filler	4	are	Part1	Half $ of $ the lettuce $ already wilted.	1	1	1	4780	a	present	3	 already wilted.
XP2List2	102	1	22	0	Does Lisa have any information, maybe some pamphlets, to give renters about the apartment complex?	3	Vpl	test	0	0	29	test	is	short	2	several	quant	3	are	Part1	Several $ in the $ front office.	1	3	3	2337	a	present	1	 front office.
XP2List2	102	1	23	0	How has working in the warehouse changed Lucius?	3	Vpl	Simple	0	0	96	filler	is	filler	0	filler	filler	6	are	Part1	Dark $ storage boxes $ all $ he $ dreams about $ anymore.	1	3	3	4868	a	present	2	 anymore.
XP2List2	102	1	24	0	Does Lila have anything to remind her of her travels, like postcards?	3	Vpl	test	0	0	17	test	is	short	2	lot	measure	3	are	Part1	A lot $ in the $ desk drawer.	1	3	3	2027	a	present	1	 desk drawer.
XP2List2	102	1	25	0	Why is the meeting with management taking so long?	3	Vpl	Simple	0	0	56	filler	is	filler	0	filler	filler	4	are	Part1	The union $ organizers $ fighting for $ better wages.	1	3	3	1222	a	present	2	 better wages.
XP2List2	102	1	26	0	Was it the dry leaves that Roberto was raking?	3	Vpl	RC	0	0	37	filler	was	filler	0	filler	filler	6	were	Part1	The grass $ clippings $ what $ Roberto $ was raking $ yesterday.	1	3	3	2303	a	past	2	 yesterday.
XP2List2	102	1	27	0	Who was your favorite customer today at the toystore?	1	Vsg	MA	0	0	77	filler	was	filler	0	filler	filler	7	were	Part1	The new $ grandpa Olaf $ looking for $ a cute $ teddy bear $ for his $ granddaughter.	1	1	1	1975	a	past	2	 granddaughter.
XP2List2	102	1	28	0	Where are the vicious rodents now?	3	Vpl	RC	0	0	36	filler	is	filler	0	filler	filler	6	are	Part1	Two $ squirrels $ that attacked $ a chipmunk $ in $ the oak.	1	3	3	1306	a	present	4	 the oak.
XP2List2	102	1	29	0	Was the winter accessory you borrowed comfortable?	1	Vsg	RC	0	0	49	filler	was	filler	0	filler	filler	5	were	Part1	The scarf $ that $ Laura knitted $ warm $ but itchy.	1	1	1	1829	a	past	3	 but itchy.
XP2List2	102	1	30	0	Do we have any desserts to look forward to at the potluck, like some pies, perhaps?	3	Vpl	test	1	0	25	test	is	short	2	all	quant	3	are	Part1	All $ in $ the refrigerator.	1	3	3	4575	a	present	1	 the refrigerator.
XP2List2	102	1	31	0	Who is planning a celebration for whom?	1	Vsg	MA	0	0	73	filler	is	filler	0	filler	filler	8	are	Part1	The $ house guest $ Roberta $ planning $ a birthday $ party $ for $ her host.	1	1	1	1051	a	present	3	 her host.
XP2List2	102	1	32	0	Have you read anything interesting on the NASA website lately?	1	Vsg	Simple	0	0	64	filler	is	filler	0	filler	filler	5	are	Part1	Another $ asteroid $ expected to $ miss Earth $ this week.	1	1	1	2309	a	present	2	 this week.
XP2List2	102	1	33	0	Does John have anything left to munch on during the second half?	1	Vpl	test	0	0	27	test	is	long	2	more	quant	4	are	Part1	More chips $ on $ the dining $ room table.	0	1	3	1408	a	present	1	 room table.
XP2List2	102	1	34	0	What made Yi so upset?	1	Vsg	RC	0	0	52	filler	is	filler	0	filler	filler	7	are	Part1	The upholstery $ that $ she $ just cleaned $ now covered $ in $ her milkshake.	1	1	1	3447	a	present	4	 her milkshake.
XP2List2	102	1	35	0	Why couldn't Bill and Randy receive text messages?	3	Vpl	Simple	0	0	88	filler	was	filler	0	filler	filler	7	were	Part1	After being $ dropped, $ their $ cell phones $ never $ the same $ again.	1	3	3	1325	a	past	4	 again.
XP2List2	102	1	36	0	Why can't we finish the installation today?	1	Vsg	Simple	0	0	93	filler	is	filler	0	filler	filler	3	are	Part1	This cable $ two meters $ too short.	1	1	1	1713	a	present	1	 too short.
XP2List2	102	1	37	0	Does Rachel have anything to write a message on?	1	Vpl	test	0	0	19	test	is	long	2	couple	measure	5	are	Part1	A couple $ of $ notepads $ by $ the telephone.	0	1	3	1101	a	present	3	 the telephone.
XP2List2	102	1	38	0	Did you notice any patterns in the exam results?	3	Vpl	RC	0	0	41	filler	was	filler	0	filler	filler	5	were	Part1	Many students $ who $ turned in $ the test $ inattentive.	1	3	3	2508	a	past	4	 inattentive.
XP2List2	102	1	39	0	Does Uncle Roger have any valuables, like coins, in his home to insure?	3	Vsg	test	0	0	13	test	is	short	2	collection	collections	3	are	Part1	A collection $ on the $ closet shelf.	0	3	1	4182	a	present	1	 closet shelf.
XP2List2	102	1	40	0	What caused the delay at the construction site?	3	Vpl	Simple	0	0	53	filler	was	filler	0	filler	filler	4	were	Part1	Two surveyors $ carefully $ packing up $ their equipment.	1	3	3	1376	a	past	1	 their equipment.
XP2List2	102	1	41	0	Do you have a reason for switching to the new typesetting program?	1	Vsg	Simple	0	0	61	filler	was	filler	0	filler	filler	4	were	Part1	This $ word processor $ known to $ crash often.	1	1	1	1723	a	past	2	 crash often.
XP2List2	102	1	42	0	Does Nathan have anything to catch the dripping water from the leaky roof in?	1	Vpl	test	0	0	31	test	is	long	2	both	quant	3	are	Part1	Both pans $ on $ the range.	0	1	3	1355	a	present	1	 the range.
XP2List2	102	1	43	0	How will your wife spend the evening while you're away?	1	Vsg	MA	0	0	69	filler	is	filler	0	filler	filler	4	are	Part1	Martina $ going $ to a $ jazz concert.	1	1	1	1253	a	present	1	 jazz concert.
XP2List2	102	1	44	0	How do you ensure the children are safe?	3	Vpl	Simple	0	0	92	filler	is	filler	0	filler	filler	5	are	Part1	Electrical sockets $ always $ covered $ in the $ playroom.	1	3	3	1431	a	present	1	 playroom.
XP2List2	102	1	45	0	How did Michaela and Frank not see the racoon in their backyard?	3	Vpl	MA	0	0	72	filler	is	filler	0	filler	filler	6	are	Part1	They $ watching $ a small $ squirrel $ in $ a tree.	1	3	3	1787	a	present	1	 a tree.
XP2List2	102	1	46	0	What are the former members of the jazz group up to now?	3	Vpl	MA	0	0	68	filler	is	filler	0	filler	filler	5	are	Part1	The pianists $ Alexander $ and Ginnie $ learning $ classical sonatas.	1	3	3	1666	a	present	3	 classical sonatas.
XP2List2	102	1	47	0	Do you have anything to juggle around here, like balls?	3	Vsg	test	1	0	1	test	is	short	2	tube	containers	3	are	Part1	A tube $ by the $ tennis racket.	0	3	1	2500	a	present	1	 tennis racket.
XP2List2	102	1	48	0	Do you have any candy to tide me over until dinner?	1	Vsg	test	1	0	7	test	is	long	2	dish	containers	5	are	Part1	A dish $ of $ gumdrops $ on the $ end table.	1	1	1	1045	a	present	3	 end table.
XP2List2	102	1	49	0	What made everyone on Sesame Street so sad?	1	Vsg	Simple	0	0	89	filler	was	filler	0	filler	filler	7	were	Part1	Neither $ Bert nor $ Ernie $ able $ to find $ the rubber $ ducky.	0	1	3	1149	a	past	3	 ducky.
XP2List2	102	1	50	0	Who had been assigned to catch the murders?	3	Vpl	RC	0	0	33	filler	was	filler	0	filler	filler	6	were	Part1	The detectives $ who $ had done $ many investigations $ on $ the case.	1	3	3	1201	a	past	4	 the case.
XP2List2	102	1	51	0	What is causing all this uproar at the sweet sixteen party?	1	Vsg	MA	0	0	65	filler	is	filler	0	filler	filler	5	are	Part1	The $ birthday girl $ Andrea $ receiving an $ expensive gift.	1	1	1	1309	a	present	3	 expensive gift.
XP2List2	102	1	52	0	What were the academics doing in the cafe?	3	Vpl	MA	0	0	76	filler	was	filler	0	filler	filler	6	were	Part1	The professors $ Henry $ and Hilary $ reading $ a philosophical $ tome.	1	3	3	1270	a	past	3	 tome.
XP2List2	102	1	53	0	Do the Carlisles have any dinnerware or dishes to bring to the picnic?	3	Vsg	test	0	0	6	test	was	short	2	tub	containers	3	were	Part2	A tub $ by $ the dishwasher.	0	3	1	1274	b	past	1	 the dishwasher.
XP2List2	102	1	54	0	Do we have any recipes for coffee cake?	1	Vpl	test	1	0	20	test	was	long	2	handful	measure	5	were	Part2	A handful $ of $ cookbooks $ in the $ kitchen cabinet.	0	1	3	1049	b	past	3	 kitchen cabinet.
XP2List2	102	1	55	0	Why couldn't Emma study for chemistry in the library?	3	Vpl	RC	0	0	35	filler	was	filler	0	filler	filler	7	were	Part2	The notes $ that $ she brought $ actually $ for $ a different $ class.	1	3	3	1190	b	past	3	 class.
XP2List2	102	1	56	0	What surprised you at the parent-teacher conferences?	1	Vsg	Simple	0	0	87	filler	was	filler	0	filler	filler	7	were	Part2	Not $ a single $ parent $ upset $ by $ the new $ school dresscode.	1	1	1	3650	b	past	3	 school dresscode.
XP2List2	102	1	57	0	Do we have any evidence the vermin poison is working?	3	Vpl	RC	0	0	42	filler	is	filler	0	filler	filler	6	are	Part2	Some mice $ that $ Amanda found $ in the $ shed $ sick.	1	3	3	1918	b	present	5	 sick.
XP2List2	102	1	58	0	What made you change your mind about buying the 4x4?	3	Vpl	Simple	0	0	58	filler	is	filler	0	filler	filler	5	are	Part2	Pick-up $ trucks $ not known $ for fuel $ efficiency.	1	3	3	1356	b	present	2	 efficiency.
XP2List2	102	1	59	0	What were the kids doing before the rain started?	3	Vpl	MA	0	0	82	filler	was	filler	0	filler	filler	5	were	Part2	The $ fifth graders $ Julian and $ Richard $ playing tag.	1	3	3	970	b	past	4	 playing tag.
XP2List2	102	1	60	0	Do you have anything to match this shirt and jacket?	1	Vpl	test	1	0	24	test	was	long	2	ton	measure	5	were	Part2	A ton $ of $ ties $ on the $ far table.	0	1	3	2561	b	past	3	 far table.
XP2List2	102	1	61	0	What is the fertilizer doing there in the garden?	1	Vsg	MA	0	0	75	filler	was	filler	0	filler	filler	6	were	Part2	The gardener $ Ted $ planting $ a rosebush $ by $ the begonias.	1	1	1	1187	b	past	2	 the begonias.
XP2List2	102	1	62	0	Did your relative bequeath you anything after her passing?	1	Vsg	Simple	0	0	62	filler	is	filler	0	filler	filler	8	are	Part2	A tattered $ tablecloth $ all $ that $ Aunt Alice $ left us $ in $ her will.	1	1	1	1568	b	present	2	 her will.
XP2List2	102	1	63	0	Do you have anything, any bags, to carry the groceries home in?	3	Vpl	test	1	0	18	test	was	short	2	number	measure	3	were	Part2	A number $ in $ the pantry.	0	3	1	3619	b	past	1	 the pantry.
XP2List2	102	1	64	0	Does Grandpa have any childhood mementos to show us?	1	Vsg	test	0	0	4	test	was	long	2	shoebox	containers	5	were	Part2	A shoebox $ of $ pictures $ in $ the attic.	0	1	3	1639	b	past	3	 the attic.
XP2List2	102	1	65	0	Does Cecilia have any documentaries or DVDs to watch this evening?	3	Vsg	test	0	0	14	test	was	short	2	set	collections	3	were	Part2	A set $ by $ the television.	0	3	1	8788	b	past	1	 the television.
XP2List2	102	1	66	0	What does the forecast look like?	3	Vpl	Simple	0	0	94	filler	is	filler	0	filler	filler	5	are	Part2	Two $ inches of $ snow $ predicted $ for tonight.	0	3	1	1636	b	present	3	 for tonight.
XP2List2	102	1	67	0	Does Maria have any plants or flowers around the house to water?	3	Vsg	test	0	0	2	test	was	short	2	pot	containers	3	were	Part2	A pot $ on the $ back porch.	0	3	1	1852	b	past	1	 back porch.
XP2List2	102	1	68	0	What were the girls doing when the news arrived?	3	Vpl	MA	0	0	78	filler	was	filler	0	filler	filler	5	were	Part2	Nicole and $ Montana $ playing with $ a new $ dollhouse.	1	3	3	1030	b	past	2	 dollhouse.
XP2List2	102	1	69	0	Where was the guard dog last seen?	1	Vsg	RC	0	0	43	filler	was	filler	0	filler	filler	8	were	Part2	A Doberman $ that $ Marge saw $ in the $ park $ later $ sitting outside $ a bank.	1	1	1	806	b	past	5	 a bank.
XP2List2	102	1	70	0	Do you forsee any problems for today's pottery class?	1	Vsg	RC	0	0	50	filler	is	filler	0	filler	filler	7	are	Part2	A pot $ that $ Rachel $ about to $ glaze $ is $ already cracked.	1	1	1	1616	b	present	3	 already cracked.
XP2List2	102	1	71	0	Where is the other cookie that was dropped?	1	Vsg	RC	0	0	46	filler	is	filler	0	filler	filler	6	are	Part2	The cookie $ that $ Oliver dropped $ under $ the $ coffee table.	1	1	1	1045	b	present	3	 coffee table.
XP2List2	102	1	72	0	What caught the biologists' attention?	1	Vsg	Simple	0	0	59	filler	was	filler	0	filler	filler	5	were	Part2	Some green $ lichen $ growing $ on $ the stump.	0	1	3	1434	b	past	2	 the stump.
XP2List2	102	1	73	0	Do they have anything to light these candles with?	1	Vsg	test	1	0	8	test	was	long	2	pack	containers	5	were	Part2	A pack $ of $ matches $ in the $ game room.	1	1	1	1779	b	past	3	 game room.
XP2List2	102	1	74	0	Do we have anything, like blankets to give to charity this December?	3	Vsg	test	1	0	10	test	was	short	2	heap	collections	3	were	Part2	A heap $ in $ the closet.	0	3	1	2948	b	past	1	 the closet.
XP2List2	102	1	75	0	What are the kids doing in the den?	3	Vpl	MA	0	0	74	filler	is	filler	0	filler	filler	5	are	Part2	Sofia and $ Kyle $ folding $ a small $ paper boat.	1	3	3	1325	b	present	2	 paper boat.
XP2List2	102	1	76	0	Why was Parker making the OK sign?	1	Vsg	RC	0	0	51	filler	was	filler	0	filler	filler	8	were	Part2	Some $ rubber cement $ that $ he $ using $ was stuck $ on $ his fingers.	1	1	1	1434	b	past	4	 his fingers.
XP2List2	102	1	77	0	What were the agile beasts seeking?	3	Vpl	RC	0	0	39	filler	was	filler	0	filler	filler	7	were	Part2	The $ mountain goats $ that $ scaled $ the cliff $ searching $ for food.	1	3	3	1282	b	past	5	 for food.
XP2List2	102	1	78	0	What made the Stevens cry at the airport?	1	Vsg	Simple	0	0	63	filler	was	filler	0	filler	filler	4	were	Part2	Their daughter $ entering $ the $ Peace Corps.	1	1	1	2483	b	past	1	 Peace Corps.
XP2List2	102	1	79	0	Does Trevor have have any sports equipment around here?	1	Vpl	test	0	0	32	test	was	long	2	five	quant	3	were	Part2	Five baseballs $ in $ the bag.	0	1	3	2736	b	past	1	 the bag.
XP2List2	102	1	80	0	Where was the interior designer when you talked to her on the phone?	1	Vsg	MA	0	0	79	filler	was	filler	0	filler	filler	4	were	Part2	Manuela $ furnishing $ a fancy $ apartment.	1	1	1	1142	b	past	1	 apartment.
XP2List2	102	1	81	0	How are the adventerous newly-weds spending their honeymoon?	3	Vpl	MA	0	0	66	filler	is	filler	0	filler	filler	5	are	Part2	Julia and $ George $ exploring $ a remote $ valley.	1	3	3	861	b	present	2	 valley.
XP2List2	102	1	82	0	How hard will it be to get my car running again?	1	Vsg	Simple	0	0	95	filler	is	filler	0	filler	filler	5	are	Part2	Any trained $ professional $ able $ to repair $ that damage.	0	1	3	1780	b	present	2	 that damage.
XP2List2	102	1	83	0	Do they have any old timepieces, clocks for example, in this store to sell at auction?	3	Vpl	test	1	0	26	test	was	short	2	many	quant	3	were	Part2	Many $ in the $ antiques department.	1	3	3	1380	b	past	1	 antiques department.
XP2List2	102	1	84	0	What was going on outside the rural train station?	3	Vpl	Simple	0	0	55	filler	was	filler	0	filler	filler	6	were	Part2	The $ taxi drivers $ waiting $ impatiently $ for new $ customers.	1	3	3	1311	b	past	2	 customers.
XP2List2	102	1	85	0	Do we know what was going on backstage?	1	Vsg	MA	0	0	83	filler	was	filler	0	filler	filler	5	were	Part2	The presenter $ Mariko $ busily $ readying her $ slides.	1	1	1	961	b	past	2	 slides.
XP2List2	102	1	86	0	Are the yipping dogs already fully grown? 	3	Vpl	RC	0	0	34	filler	is	filler	0	filler	filler	5	are	Part2	Those $ schnauzers $ that chased $ Nicholas $ still puppies.	1	3	3	952	b	present	4	 still puppies.
XP2List2	102	1	87	0	Do you know what that fancy couple you know is doing tonight?	3	Vpl	MA	0	0	70	filler	is	filler	0	filler	filler	7	are	Part2	The epicures $ Gary and $ Victoria $ sharing $ a fine $ wine $ with friends.	1	3	3	704	b	present	3	 with friends.
XP2List2	102	1	88	0	Do we have any artwork to sell at the flea market?	1	Vpl	test	1	0	28	test	was	long	2	some	quant	2	were	Part2	Some paintings $ in storage.	0	1	3	1099	b	past	1	 in storage.
XP2List2	102	1	89	0	How did Dianne and Liz end up getting coffee together?	3	Vpl	Simple	0	0	90	filler	was	filler	0	filler	filler	4	were	Part2	They $ realized their $ appointments $ cancelled.	1	3	3	945	b	past	3	 cancelled.
XP2List2	102	1	90	0	Do they have anything, like magazines, to read while we wait?	3	Vpl	test	1	0	22	test	was	short	2	smattering	measure	3	were	Part2	A smattering $ in $ the basement.	0	3	1	1348	b	past	1	 the basement.
XP2List2	102	1	91	0	Do you know what type of firewood we'll have?	1	Vsg	RC	0	0	47	filler	was	filler	0	filler	filler	5	were	Part2	One $ tree $ that $ Katie felled $ a pine.	1	1	1	2227	b	past	4	 a pine.
XP2List2	102	1	92	0	Why has the supervisor received so many complaints lately?	3	Vpl	Simple	0	0	86	filler	was	filler	0	filler	filler	7	were	Part2	Several workers $ of $ the belief $ that $ their pay $ was $ too low.	1	3	3	1200	b	past	1	 too low.
XP2List2	102	1	93	0	Who is playing the next three songs?	1	Vsg	Simple	0	0	91	filler	is	filler	0	filler	filler	5	are	Part2	Either Fumiko $ or Ed $ scheduled $ to perform $ next.	0	1	3	11973	b	present	2	 next.
XP2List2	102	1	94	0	Do we have anyone to give this extra ice cream to?	1	Vsg	test	1	1	16	test	was	long	2	troop	collections	5	were	Part2	A troop $ of $ preschoolers $ at $ the park.	0	1	3	938	b	past	3	 the park.
XP2List2	102	1	95	0	Do you have any livestock to show the second graders on their visit to the farm?	1	Vsg	test	1	1	12	test	was	long	2	group	collections	5	were	Part2	A group $ of $ llamas $ across $ the pasture.	0	1	3	828	b	past	3	 the pasture.
XP2List2	102	1	96	0	Why is Tanya typing so furiously at her computer?	1	Vsg	MA	0	0	71	filler	is	filler	0	filler	filler	4	are	Part2	She $ creating $ a new $ computer game.	1	1	1	697	b	present	1	 computer game.
XP2List2	102	1	97	0	Why is the rest of the team jealous?	1	Vsg	MA	0	0	67	filler	is	filler	0	filler	filler	4	are	Part2	Caroline $ training $ with a $ new coach.	1	1	1	778	b	present	1	 new coach.
XP2List2	102	1	98	0	Hasn't anyone cleaned around here today?	3	Vpl	RC	0	0	38	filler	is	filler	0	filler	filler	5	are	Part2	These $ picture frames $ that $ Yanina bought $ quite dusty.	1	3	3	659	b	present	4	 quite dusty.
XP2List2	102	1	99	0	Do we have anywhere more private to talk, with not so many people?	3	Vpl	test	1	1	30	test	was	short	2	fewer	quant	3	were	Part2	Fewer $ in $ the courtyard.	1	3	3	1063	b	past	1	 the courtyard.
XP2List2	102	1	100	0	Don't you think it's strange to see such animals here?	3	Vpl	Simple	0	0	54	filler	is	filler	0	filler	filler	4	are	Part2	Adult caribou $ seldom $ found $ in Montana. 	1	3	3	2192	b	present	1	 in Montana. 
XP2List1	103	1	1	0	How much natural light does your new office have?		?	?	?	?	training3	?	is	?	?	?	training	4	are	Entrainement	My $ ficus tree $ thriving $ there.	0		1	2418	?	?	2	 there.
XP2List1	103	1	2	0	What did you like best about living in New England?		?	?	?	?	training2	?	was	?	?	?	training	4	were	Entrainement	The leaves $ in the $ fall $ beautiful.	0		3	836	?	?	3	 beautiful.
XP2List1	103	1	3	0	Why couldn't you park your car inside last night?		?	?	?	?	training4	?	was	?	?	?	training	4	were	Entrainement	Some $ wooden table $ in $ the garage.	0		1	766	?	?	2	 the garage.
XP2List1	103	1	4	0	Where can I find the keys to the cabinets?		?	?	?	?	training1	?	is	?	?	?	training	5	are	Entrainement	The key $ to $ the cabinets $ in $ the drawer.	0		3	809	?	?	3	 the drawer.
XP2List1	103	1	5	0	What will we put in the salad?	1	Vsg	Simple	0	0	60	filler	is	filler	0	filler	filler	4	are	Part1	Half $ of $ the lettuce $ already wilted.	1	1	1	1187	a	present	3	 already wilted.
XP2List1	103	1	6	0	Who had been assigned to catch the murders?	3	Vpl	RC	0	0	33	filler	was	filler	0	filler	filler	6	were	Part1	The detectives $ who $ had done $ many investigations $ on $ the case.	1	3	3	851	a	past	4	 the case.
XP2List1	103	1	7	0	Does Barbara have anything to file these documents in?	1	Vpl	test	0	0	21	test	is	long	1	bunch	measure	5	are	Part1	A bunch $ of $ folders $ on $ the shelf.	0	1	3	856	a	present	3	 the shelf.
XP2List1	103	1	8	0	Does Nathan have anything, like pans, to catch the dripping water from the leaky roof?	3	Vpl	test	0	0	31	test	is	short	1	both	quant	3	are	Part1	Both $ on $ the range.	1	3	3	721	a	present	1	 the range.
XP2List1	103	1	9	0	Do you have a reason for switching to the new typesetting program?	1	Vsg	Simple	0	0	61	filler	was	filler	0	filler	filler	4	were	Part1	This $ word processor $ known to $ crash often.	1	1	1	1037	a	past	2	 crash often.
XP2List1	103	1	10	0	Does she have any extra hockey equipment to bring to practice?	1	Vsg	test	1	0	9	test	is	long	1	pile	collections	5	are	Part1	A pile $ of $ pucks $ beside the $ hockey mask.	0	1	3	582	a	present	3	 hockey mask.
XP2List1	103	1	11	0	How do you ensure the children are safe?	3	Vpl	Simple	0	0	92	filler	is	filler	0	filler	filler	5	are	Part1	Electrical sockets $ always $ covered $ in the $ playroom.	1	3	3	890	a	present	1	 playroom.
XP2List1	103	1	12	0	Do they have any food, some sandwiches maybe, for the guests to eat?	3	Vsg	test	1	0	11	test	is	short	1	stack	collections	3	are	Part1	A stack $ on the $ serving platter.	1	3	3	1014	a	present	1	 serving platter.
XP2List1	103	1	13	0	Why did one student get points taken off his essay?	1	Vsg	RC	0	0	44	filler	is	filler	0	filler	filler	6	are	Part1	The author $ that Russell $ cited $ thought $ to be $ a fraud.	1	1	1	864	a	present	3	 a fraud.
XP2List1	103	1	14	0	Does Uncle Roger have any valuables in his home to insure?	1	Vsg	test	0	0	13	test	is	long	1	collection	collections	5	are	Part1	A collection $ of $ coins $ on the $ closet shelf.	0	1	3	655	a	present	3	 closet shelf.
XP2List1	103	1	15	0	Why can't we finish the installation today?	1	Vsg	Simple	0	0	93	filler	is	filler	0	filler	filler	3	are	Part1	This cable $ two meters $ too short.	1	1	1	799	a	present	1	 too short.
XP2List1	103	1	16	0	How did Michaela and Frank not see the racoon in their backyard?	3	Vpl	MA	0	0	72	filler	is	filler	0	filler	filler	6	are	Part1	They $ watching $ a small $ squirrel $ in $ a tree.	1	3	3	818	a	present	1	 a tree.
XP2List1	103	1	17	0	Was the winter accessory you borrowed comfortable?	1	Vsg	RC	0	0	49	filler	was	filler	0	filler	filler	5	were	Part1	The scarf $ that $ Laura knitted $ warm $ but itchy.	1	1	1	721	a	past	3	 but itchy.
XP2List1	103	1	18	0	Does John have anything left to munch on, like chips, during the second half?	3	Vpl	test	0	0	27	test	is	short	1	more	quant	4	are	Part1	More $ on $ the dining $ room table.	1	3	3	719	a	present	1	 room table.
XP2List1	103	1	19	0	Have you read anything interesting on the NASA website lately?	1	Vsg	Simple	0	0	64	filler	is	filler	0	filler	filler	5	are	Part1	Another $ asteroid $ expected to $ miss Earth $ this week.	1	1	1	707	a	present	2	 this week.
XP2List1	103	1	20	0	Why has the laptop been running since yesterday?	3	Vpl	RC	0	0	40	filler	is	filler	0	filler	filler	5	are	Part1	The computer $ simulations $ that ran $ all night $ complex.	1	3	3	662	a	present	4	 complex.
XP2List1	103	1	21	0	Has the lost heirloom been found yet?	1	Vsg	RC	0	0	48	filler	is	filler	0	filler	filler	5	are	Part1	The watch $ that $ Liz inherited $ still $ missing today.	1	1	1	844	a	present	3	 missing today.
XP2List1	103	1	22	0	Do we have any desserts to look forward to at the potluck?	1	Vpl	test	1	0	25	test	is	long	1	all	quant	3	are	Part1	All pies $ in $ the refrigerator.	0	1	3	598	a	present	1	 the refrigerator.
XP2List1	103	1	23	0	What is causing all this uproar at the sweet sixteen party?	1	Vsg	MA	0	0	65	filler	is	filler	0	filler	filler	5	are	Part1	The $ birthday girl $ Andrea $ receiving an $ expensive gift.	1	1	1	645	a	present	3	 expensive gift.
XP2List1	103	1	24	0	How has Susanne spent the last few months?	1	Vsg	MA	0	0	81	filler	was	filler	0	filler	filler	4	were	Part1	The documentarian $ shooting $ a long, $ boring film.	1	1	1	1100	a	past	1	 boring film.
XP2List1	103	1	25	0	How has working in the warehouse changed Lucius?	3	Vpl	Simple	0	0	96	filler	is	filler	0	filler	filler	6	are	Part1	Dark $ storage boxes $ all $ he $ dreams about $ anymore.	1	3	3	609	a	present	2	 anymore.
XP2List1	103	1	26	0	Who is planning a celebration for whom?	1	Vsg	MA	0	0	73	filler	is	filler	0	filler	filler	8	are	Part1	The $ house guest $ Roberta $ planning $ a birthday $ party $ for $ her host.	1	1	1	1132	a	present	3	 her host.
XP2List1	103	1	27	0	Who was your favorite customer today at the toystore?	1	Vsg	MA	0	0	77	filler	was	filler	0	filler	filler	7	were	Part1	The new $ grandpa Olaf $ looking for $ a cute $ teddy bear $ for his $ granddaughter.	1	1	1	1502	a	past	2	 granddaughter.
XP2List1	103	1	28	0	What made everyone on Sesame Street so sad?	1	Vsg	Simple	0	0	89	filler	was	filler	0	filler	filler	7	were	Part1	Neither $ Bert nor $ Ernie $ able $ to find $ the rubber $ ducky.	0	1	3	674	a	past	3	 ducky.
XP2List1	103	1	29	0	Why couldn't Bill and Randy receive text messages?	3	Vpl	Simple	0	0	88	filler	was	filler	0	filler	filler	7	were	Part1	After being $ dropped, $ their $ cell phones $ never $ the same $ again.	1	3	3	664	a	past	4	 again.
XP2List1	103	1	30	0	What was the state of preparations when you left?	3	Vpl	MA	0	0	84	filler	was	filler	0	filler	filler	6	were	Part1	The masons $ Steve $ and Melinda $ stacking bricks $ at the $ construction site.	1	3	3	714	a	past	3	 construction site.
XP2List1	103	1	31	0	Do we know why we couldn't go back to library?	1	Vsg	RC	0	0	45	filler	was	filler	0	filler	filler	4	were	Part1	One DVD $ that $ Kayleigh borrowed $ past due.	1	1	1	918	a	past	3	 past due.
XP2List1	103	1	32	0	What were the academics doing in the cafe?	3	Vpl	MA	0	0	76	filler	was	filler	0	filler	filler	6	were	Part1	The professors $ Henry $ and Hilary $ reading $ a philosophical $ tome.	1	3	3	755	a	past	3	 tome.
XP2List1	103	1	33	0	Where are the vicious rodents now?	3	Vpl	RC	0	0	36	filler	is	filler	0	filler	filler	6	are	Part1	Two $ squirrels $ that attacked $ a chipmunk $ in $ the oak.	1	3	3	806	a	present	4	 the oak.
XP2List1	103	1	34	0	What made Yi so upset?	1	Vsg	RC	0	0	52	filler	is	filler	0	filler	filler	7	are	Part1	The upholstery $ that $ she $ just cleaned $ now covered $ in $ her milkshake.	1	1	1	949	a	present	4	 her milkshake.
XP2List1	103	1	35	0	Does Lila have anything to remind her of her travels?	1	Vpl	test	0	0	17	test	is	long	1	lot	measure	5	are	Part1	A lot $ of $ postcards $ in the $ desk drawer.	0	1	3	999	a	present	3	 desk drawer.
XP2List1	103	1	36	0	Do we have anyone, like onlookers, to give a written testimony on the car accident?	3	Vsg	test	1	1	15	test	is	short	1	crowd	collections	3	are	Part1	A crowd $ across $ the street.	0	3	1	767	a	present	1	 the street.
XP2List1	103	1	37	0	Why do you think the meat shop was so clean all the time?	1	Vsg	Simple	0	0	85	filler	was	filler	0	filler	filler	5	were	Part1	The butcher $ fanatical about $ keeping flies $ off $ the meat.	1	1	1	647	a	past	1	 the meat.
XP2List1	103	1	38	0	Do you have anything to help with my fever, like pills?	3	Vsg	test	1	0	3	test	is	short	1	bottle	containers	3	are	Part1	A bottle $ by $ the tissues.	0	3	1	654	a	present	1	 the tissues.
XP2List1	103	1	39	0	What startled the backpackers out of their slumber?	3	Vpl	Simple	0	0	57	filler	was	filler	0	filler	filler	5	were	Part1	Numerous $ coyotes $ heard howling $ in $ the canyon.	1	3	3	1012	a	past	2	 the canyon.
XP2List1	103	1	40	0	What are the former members of the jazz group up to now?	3	Vpl	MA	0	0	68	filler	is	filler	0	filler	filler	5	are	Part1	The pianists $ Alexander $ and Ginnie $ learning $ classical sonatas.	1	3	3	462	a	present	3	 classical sonatas.
XP2List1	103	1	41	0	How will your wife spend the evening while you're away?	1	Vsg	MA	0	0	69	filler	is	filler	0	filler	filler	4	are	Part1	Martina $ going $ to a $ jazz concert.	1	1	1	651	a	present	1	 jazz concert.
XP2List1	103	1	42	0	How did you find out the couple were expecting a baby?	3	Vpl	MA	0	0	80	filler	was	filler	0	filler	filler	5	were	Part1	Sven and $ Paula $ picking out $ a jogging $ stroller.	1	3	3	1025	a	past	2	 stroller.
XP2List1	103	1	43	0	Does Rachel have anything, like notepads, to write a message on?	3	Vpl	test	0	0	19	test	is	short	1	couple	measure	3	are	Part1	A couple $ by $ the telephone.	1	3	3	693	a	present	1	 the telephone.
XP2List1	103	1	44	0	Did you notice any patterns in the exam results?	3	Vpl	RC	0	0	41	filler	was	filler	0	filler	filler	5	were	Part1	Many students $ who $ turned in $ the test $ inattentive.	1	3	3	1229	a	past	4	 inattentive.
XP2List1	103	1	45	0	Why is the meeting with management taking so long?	3	Vpl	Simple	0	0	56	filler	is	filler	0	filler	filler	4	are	Part1	The union $ organizers $ fighting for $ better wages.	1	3	3	570	a	present	2	 better wages.
XP2List1	103	1	46	0	What caused the delay at the construction site?	3	Vpl	Simple	0	0	53	filler	was	filler	0	filler	filler	4	were	Part1	Two surveyors $ carefully $ packing up $ their equipment.	1	3	3	591	a	past	1	 their equipment.
XP2List1	103	1	47	0	Do they have anything to serve the coffee in, like mugs?	3	Vpl	test	1	0	23	test	is	short	1	variety	measure	3	are	Part1	A variety $ in $ the dishwasher.	1	3	3	692	a	present	1	 the dishwasher.
XP2List1	103	1	48	0	Does Lisa have any information to give renters about the apartment complex?	1	Vpl	test	0	0	29	test	is	long	1	several	quant	3	are	Part1	Several pamphlets $ in the $ front office.	0	1	3	642	a	present	1	 front office.
XP2List1	103	1	49	0	Was it the dry leaves that Roberto was raking?	3	Vpl	RC	0	0	37	filler	was	filler	0	filler	filler	6	were	Part1	The grass $ clippings $ what $ Roberto $ was raking $ yesterday.	1	3	3	773	a	past	2	 yesterday.
XP2List1	103	1	50	0	Do you have anything to mend the tear in my shirt?	1	Vsg	test	1	0	5	test	is	long	1	matchbox	containers	5	are	Part1	A matchbox $ of $ needles $ by the $ sewing machine.	1	1	1	381	a	present	3	 sewing machine.
XP2List1	103	1	51	0	Do you have anything to juggle around here?	1	Vsg	test	1	0	1	test	is	long	1	tube	containers	5	are	Part1	A tube $ of $ balls $ by the $ tennis racket.	1	1	1	678	a	present	3	 tennis racket.
XP2List1	103	1	52	0	Do you have any candy or gumdrops to tide me over until dinner?	3	Vsg	test	1	0	7	test	is	short	1	dish	containers	3	are	Part1	A dish $ on the $ end table.	0	3	1	740	a	present	1	 end table.
XP2List1	103	1	53	0	What were the agile beasts seeking?	3	Vpl	RC	0	0	39	filler	was	filler	0	filler	filler	7	were	Part2	The $ mountain goats $ that $ scaled $ the cliff $ searching $ for food.	1	3	3	521	b	past	5	 for food.
XP2List1	103	1	54	0	Where is the other cookie that was dropped?	1	Vsg	RC	0	0	46	filler	is	filler	0	filler	filler	6	are	Part2	The cookie $ that $ Oliver dropped $ under $ the $ coffee table.	1	1	1	675	b	present	3	 coffee table.
XP2List1	103	1	55	0	How hard will it be to get my car running again?	1	Vsg	Simple	0	0	95	filler	is	filler	0	filler	filler	5	are	Part2	Any trained $ professional $ able $ to repair $ that damage.	1	1	1	592	b	present	2	 that damage.
XP2List1	103	1	56	0	Do we have any recipes, in cookbooks maybe, for coffee cake?	3	Vpl	test	1	0	20	test	was	short	1	handful	measure	3	were	Part2	A handful $ in the $ kitchen cabinet.	1	3	3	605	b	past	1	 kitchen cabinet.
XP2List1	103	1	57	0	What was going on outside the rural train station?	3	Vpl	Simple	0	0	55	filler	was	filler	0	filler	filler	6	were	Part2	The $ taxi drivers $ waiting $ impatiently $ for new $ customers.	1	3	3	498	b	past	2	 customers.
XP2List1	103	1	58	0	Do they have anything, like matches, to light these candles with?	3	Vsg	test	1	0	8	test	was	short	1	pack	containers	3	were	Part2	A pack $ in the $ game room.	1	3	3	467	b	past	1	 game room.
XP2List1	103	1	59	0	Where was the guard dog last seen?	1	Vsg	RC	0	0	43	filler	was	filler	0	filler	filler	8	were	Part2	A Doberman $ that $ Marge saw $ in the $ park $ later $ sitting outside $ a bank.	1	1	1	687	b	past	5	 a bank.
XP2List1	103	1	60	0	Who is playing the next three songs?	1	Vsg	Simple	0	0	91	filler	is	filler	0	filler	filler	5	are	Part2	Either Fumiko $ or Ed $ scheduled $ to perform $ next.	0	1	3	790	b	present	2	 next.
XP2List1	103	1	61	0	Did your relative bequeath you anything after her passing?	1	Vsg	Simple	0	0	62	filler	is	filler	0	filler	filler	8	are	Part2	A tattered $ tablecloth $ all $ that $ Aunt Alice $ left us $ in $ her will.	1	1	1	676	b	present	2	 her will.
XP2List1	103	1	62	0	Where was the interior designer when you talked to her on the phone?	1	Vsg	MA	0	0	79	filler	was	filler	0	filler	filler	4	were	Part2	Manuela $ furnishing $ a fancy $ apartment.	1	1	1	711	b	past	1	 apartment.
XP2List1	103	1	63	0	Do we have anyone, like preschoolers, to give this extra ice cream to?	3	Vsg	test	1	1	16	test	was	short	1	troop	collections	3	were	Part2	A troop $ at $ the park	0	3	1	707	b	past	1	 the park
XP2List1	103	1	64	0	Do you have anything, any ties perhaps, to match this shirt and jacket?	3	Vpl	test	1	0	24	test	was	short	1	ton	measure	3	were	Part2	A ton $ on the $ far table.	1	3	3	1341	b	past	1	 far table.
XP2List1	103	1	65	0	Do you have any livestock, like llamas, to show the second graders on their visit to the farm?	3	Vsg	test	1	1	12	test	was	short	1	group	collections	3	were	Part2	A group $ across $ the pasture.	1	3	3	469	b	past	1	 the pasture.
XP2List1	103	1	66	0	Does Maria have any plants around the house to water?	1	Vsg	test	0	0	2	test	was	long	1	pot	containers	5	were	Part2	A pot $ of $ flowers $ on the $ back porch.	1	1	1	563	b	past	3	 back porch.
XP2List1	103	1	67	0	What made you change your mind about buying the 4x4?	3	Vpl	Simple	0	0	58	filler	is	filler	0	filler	filler	5	are	Part2	Pick-up $ trucks $ not known $ for fuel $ efficiency.	1	3	3	534	b	present	2	 efficiency.
XP2List1	103	1	68	0	Does Trevor have any sports equipment, baseballs for example, around here?	3	Vpl	test	0	0	32	test	was	short	1	five	quant	3	were	Part2	Five $ in $ the bag.	1	3	3	591	b	past	1	 the bag.
XP2List1	103	1	69	0	Do we have any artwork, any paintings, perhaps, to sell at the flea market?	3	Vpl	test	1	0	28	test	was	short	1	some	quant	2	were	Part2	Some $ in storage.	1	3	3	647	b	past	1	 in storage.
XP2List1	103	1	70	0	Do you forsee any problems for today's pottery class?	1	Vsg	RC	0	0	50	filler	is	filler	0	filler	filler	7	are	Part2	A pot $ that $ Rachel $ about to $ glaze $ is $ already cracked.	1	1	1	948	b	present	3	 already cracked.
XP2List1	103	1	71	0	What surprised you at the parent-teacher conferences?	1	Vsg	Simple	0	0	87	filler	was	filler	0	filler	filler	7	were	Part2	Not $ a single $ parent $ upset $ by $ the new $ school dresscode.	0	1	3	459	b	past	3	 school dresscode.
XP2List1	103	1	72	0	Do we know what was going on backstage?	1	Vsg	MA	0	0	83	filler	was	filler	0	filler	filler	5	were	Part2	The presenter $ Mariko $ busily $ readying her $ slides.	1	1	1	591	b	past	2	 slides.
XP2List1	103	1	73	0	What are the kids doing in the den?	3	Vpl	MA	0	0	74	filler	is	filler	0	filler	filler	5	are	Part2	Sofia and $ Kyle $ folding $ a small $ paper boat.	1	3	3	812	b	present	2	 paper boat.
XP2List1	103	1	74	0	Do we have any evidence the vermin poison is working?	3	Vpl	RC	0	0	42	filler	is	filler	0	filler	filler	6	are	Part2	Some mice $ that $ Amanda found $ in the $ shed $ sick.	1	3	3	497	b	present	5	 sick.
XP2List1	103	1	75	0	What is the fertilizer doing there in the garden?	1	Vsg	MA	0	0	75	filler	was	filler	0	filler	filler	6	were	Part2	The gardener $ Ted $ planting $ a rosebush $ by $ the begonias.	1	1	1	774	b	past	2	 the begonias.
XP2List1	103	1	76	0	How did Dianne and Liz end up getting coffee together?	3	Vpl	Simple	0	0	90	filler	was	filler	0	filler	filler	4	were	Part2	They $ realized their $ appointments $ cancelled.	1	3	3	632	b	past	3	 cancelled.
XP2List1	103	1	77	0	How are the adventurous newly-weds spending their honeymoon?	3	Vpl	MA	0	0	66	filler	is	filler	0	filler	filler	5	are	Part2	Julia and $ George $ exploring $ a remote $ valley.	1	3	3	555	b	present	2	 valley.
XP2List1	103	1	78	0	Hasn't anyone cleaned around here today?	3	Vpl	RC	0	0	38	filler	is	filler	0	filler	filler	5	are	Part2	These $ picture frames $ that $ Yanina bought $ quite dusty.	1	3	3	925	b	present	4	 quite dusty.
XP2List1	103	1	79	0	Don't you think it's strange to see such animals here?	3	Vpl	Simple	0	0	54	filler	is	filler	0	filler	filler	4	are	Part2	Adult caribou $ seldom $ found $ in Montana. 	1	3	3	607	b	present	1	 in Montana. 
XP2List1	103	1	80	0	Do you know what type of firewood we'll have?	1	Vsg	RC	0	0	47	filler	was	filler	0	filler	filler	5	were	Part2	One $ tree $ that $ Katie felled $ a pine.	1	1	1	1744	b	past	4	 a pine.
XP2List1	103	1	81	0	Why is the rest of the team jealous?	1	Vsg	MA	0	0	67	filler	is	filler	0	filler	filler	4	are	Part2	Caroline $ training $ with a $ new coach.	1	1	1	908	b	present	1	 new coach.
XP2List1	103	1	82	0	Why couldn't Emma study for chemistry in the library?	3	Vpl	RC	0	0	35	filler	was	filler	0	filler	filler	7	were	Part2	The notes $ that $ she brought $ actually $ for $ a different $ class.	1	3	3	682	b	past	3	 class.
XP2List1	103	1	83	0	Does Grandpa have any childhood mementos, like pictures, to show us?	3	Vsg	test	0	0	4	test	was	short	1	shoebox	containers	3	were	Part2	A shoebox $ in $ the attic.	0	3	1	595	b	past	1	 the attic.
XP2List1	103	1	84	0	Why is Tanya typing so furiously at her computer?	1	Vsg	MA	0	0	71	filler	is	filler	0	filler	filler	4	are	Part2	She $ creating $ a new $ computer game.	1	1	1	581	b	present	1	 computer game.
XP2List1	103	1	85	0	Why has the supervisor received so many complaints lately?	3	Vpl	Simple	0	0	86	filler	was	filler	0	filler	filler	7	were	Part2	Several workers $ of $ the belief $ that $ their pay $ was $ too low.	1	3	3	530	b	past	1	 too low.
XP2List1	103	1	86	0	Are the yipping dogs already fully grown? 	3	Vpl	RC	0	0	34	filler	is	filler	0	filler	filler	5	are	Part2	Those $ schnauzers $ that chased $ Nicholas $ still puppies.	1	3	3	565	b	present	4	 still puppies.
XP2List1	103	1	87	0	Do the Carlisles have any dinnerware to bring to the picnic?	1	Vsg	test	0	0	6	test	was	long	1	tub	containers	5	were	Part2	A tub $ of $ dishes $ by $ the dishwasher.	0	1	3	801	b	past	3	 the dishwasher.
XP2List1	103	1	88	0	Do we have anywhere more private to talk?	1	Vpl	test	1	1	30	test	was	long	1	fewer	quant	3	were	Part2	Fewer people $ in $ the courtyard.	0	1	3	655	b	past	1	 the courtyard.
XP2List1	103	1	89	0	Do we have anything to give to charity this December?	1	Vsg	test	1	0	10	test	was	long	1	heap	collections	5	were	Part2	A heap $ of $ blankets $ in $ the closet.	0	1	3	556	b	past	3	 the closet.
XP2List1	103	1	90	0	Do you have anything to carry the groceries home in?	1	Vpl	test	1	0	18	test	was	long	1	number	measure	5	were	Part2	A number $ of $ bags $ in $ the pantry.	0	1	3	459	b	past	3	 the pantry.
XP2List1	103	1	91	0	What made the Stevens cry at the airport?	1	Vsg	Simple	0	0	63	filler	was	filler	0	filler	filler	4	were	Part2	Their daughter $ entering $ the $ Peace Corps.	1	1	1	816	b	past	1	 Peace Corps.
XP2List1	103	1	92	0	Why was Parker making the OK sign?	1	Vsg	RC	0	0	51	filler	was	filler	0	filler	filler	8	were	Part2	Some $ rubber cement $ that $ he $ using $ was stuck $ on $ his fingers.	1	1	1	601	b	past	4	 his fingers.
XP2List1	103	1	93	0	What does the forecast look like?	3	Vpl	Simple	0	0	94	filler	is	filler	0	filler	filler	5	are	Part2	Two $ inches of $ snow $ predicted $ for tonight.	1	3	3	802	b	present	3	 for tonight.
XP2List1	103	1	94	0	Do you know what that fancy couple you know is doing tonight?	3	Vpl	MA	0	0	70	filler	is	filler	0	filler	filler	7	are	Part2	The epicures $ Gary and $ Victoria $ sharing $ a fine $ wine $ with friends.	1	3	3	569	b	present	3	 with friends.
XP2List1	103	1	95	0	What were the kids doing before the rain started?	3	Vpl	MA	0	0	82	filler	was	filler	0	filler	filler	5	were	Part2	The $ fifth graders $ Julian and $ Richard $ playing tag.	1	3	3	562	b	past	4	 playing tag.
XP2List1	103	1	96	0	Do they have any old timepieces in this store to sell at auction?	1	Vpl	test	1	0	26	test	was	long	1	many	quant	3	were	Part2	Many clocks $ in the $ antiques department.	0	1	3	622	b	past	1	 antiques department.
XP2List1	103	1	97	0	Do they have anything to read while we wait?	1	Vpl	test	1	0	22	test	was	long	1	smattering	measure	5	were	Part2	A smattering $ of $ magazines $ in $ the basement.	0	1	3	607	b	past	3	 the basement.
XP2List1	103	1	98	0	What caught the biologists' attention?	1	Vsg	Simple	0	0	59	filler	was	filler	0	filler	filler	5	were	Part2	Some green $ lichen $ growing $ on $ the stump.	1	1	1	878	b	past	2	 the stump.
XP2List1	103	1	99	0	Does Cecilia have any documentaries to watch this evening?	1	Vsg	test	0	0	14	test	was	long	1	set	collections	5	were	Part2	A set $ of $ DVDs $ by $ the television.	1	1	1	1284	b	past	3	 the television.
XP2List1	103	1	100	0	What were the girls doing when the news arrived?	3	Vpl	MA	0	0	78	filler	was	filler	0	filler	filler	5	were	Part2	Nicole and $ Montana $ playing with $ a new $ dollhouse.	1	3	3	337	b	past	2	 dollhouse.
XP2List2	104	1	1	0	Why couldn't you park your car inside last night?		?	?	?	?	training4	?	was	?	?	?	training	4	were	Entrainement	Some $ wooden tables $ in $ the garage.	0		3	3022	?	?	2	 the garage.
XP2List2	104	1	2	0	How much natural light does your new office have?		?	?	?	?	training3	?	is	?	?	?	training	4	are	Entrainement	My $ ficus tree $ certainly thriving $ there.	0		3	1918	?	?	2	 there.
XP2List2	104	1	3	0	What did you like best about living in New England?		?	?	?	?	training2	?	was	?	?	?	training	4	were	Entrainement	The leaves $ in the $ fall $ beautiful.	0		3	1349	?	?	3	 beautiful.
XP2List2	104	1	4	0	Where can I find the keys to the cabinets?		?	?	?	?	training1	?	is	?	?	?	training	5	are	Entrainement	The key $ to $ the cabinets $ in $ the drawer.	0		3	6128	?	?	3	 the drawer.
XP2List2	104	1	5	0	Who had been assigned to catch the murders?	3	Vpl	RC	0	0	33	filler	was	filler	0	filler	filler	6	were	Part1	The detectives $ who $ had done $ many investigations $ on $ the case.	1	3	3	3223	a	past	4	 the case.
XP2List2	104	1	6	0	Where are the vicious rodents now?	3	Vpl	RC	0	0	36	filler	is	filler	0	filler	filler	6	are	Part1	Two $ squirrels $ that attacked $ a chipmunk $ in $ the oak.	1	3	3	1547	a	present	4	 the oak.
XP2List2	104	1	7	0	Do we have any desserts to look forward to at the potluck, like some pies, perhaps?	3	Vpl	test	1	0	25	test	is	short	2	all	quant	3	are	Part1	All $ in $ the refrigerator.	1	3	3	6714	a	present	1	 the refrigerator.
XP2List2	104	1	8	0	Do you have anything to mend the tear in my shirt, like needles, for example?	3	Vsg	test	1	0	5	test	is	short	2	matchbox	containers	3	are	Part1	A matchbox $ by the $ sewing machine.	0	3	1	1918	a	present	1	 sewing machine.
XP2List2	104	1	9	0	How has Susanne spent the last few months?	1	Vsg	MA	0	0	81	filler	was	filler	0	filler	filler	4	were	Part1	The documentarian $ shooting $ a long, $ boring film.	0	1	3	3384	a	past	1	 boring film.
XP2List2	104	1	10	0	What were the academics doing in the cafe?	3	Vpl	MA	0	0	76	filler	was	filler	0	filler	filler	6	were	Part1	The professors $ Henry $ and Hilary $ reading $ a philosophical $ tome.	1	3	3	1641	a	past	3	 tome.
XP2List2	104	1	11	0	Why do you think the meat shop was so clean all the time?	1	Vsg	Simple	0	0	85	filler	was	filler	0	filler	filler	5	were	Part1	The butcher $ fanatical about $ keeping flies $ off $ the meat.	1	1	1	1434	a	past	1	 the meat.
XP2List2	104	1	12	0	Why couldn't Bill and Randy receive text messages?	3	Vpl	Simple	0	0	88	filler	was	filler	0	filler	filler	7	were	Part1	After being $ dropped, $ their $ cell phones $ never $ the same $ again.	1	3	3	1923	a	past	4	 again.
XP2List2	104	1	13	0	Was the winter accessory you borrowed comfortable?	1	Vsg	RC	0	0	49	filler	was	filler	0	filler	filler	5	were	Part1	The scarf $ that $ Laura knitted $ warm $ but itchy.	1	1	1	1202	a	past	3	 but itchy.
XP2List2	104	1	14	0	Do they have any food for the guests to eat?	1	Vsg	test	1	0	11	test	is	long	2	stack	collections	5	are	Part1	A stack $ of $ sandwiches $ on the $ serving platter.	1	1	1	1764	a	present	3	 serving platter.
XP2List2	104	1	15	0	What startled the backpackers out of their slumber?	3	Vpl	Simple	0	0	57	filler	was	filler	0	filler	filler	5	were	Part1	Numerous $ coyotes $ heard howling $ in $ the canyon.	1	3	3	1269	a	past	2	 the canyon.
XP2List2	104	1	16	0	Does Lila have anything to remind her of her travels, like postcards?	3	Vpl	test	0	0	17	test	is	short	2	lot	measure	3	are	Part1	A lot $ in the $ desk drawer.	0	3	1	2159	a	present	1	 desk drawer.
XP2List2	104	1	17	0	Does Rachel have anything to write a message on?	1	Vpl	test	0	0	19	test	is	long	2	couple	measure	5	are	Part1	A couple $ of $ notepads $ by $ the telephone.	0	1	3	996	a	present	3	 the telephone.
XP2List2	104	1	18	0	Does Barbara have anything, any folders, to file these documents in?	3	Vpl	test	0	0	21	test	is	short	2	bunch	measure	3	are	Part1	A bunch $ on $ the shelf.	1	3	3	1457	a	present	1	 the shelf.
XP2List2	104	1	19	0	Why is the meeting with management taking so long?	3	Vpl	Simple	0	0	56	filler	is	filler	0	filler	filler	4	are	Part1	The union $ organizers $ fighting for $ better wages.	1	3	3	1286	a	present	2	 better wages.
XP2List2	104	1	20	0	Does Nathan have anything to catch the dripping water from the leaky roof in?	1	Vpl	test	0	0	31	test	is	long	2	both	quant	3	are	Part1	Both pans $ on $ the range.	0	1	3	1465	a	present	1	 the range.
XP2List2	104	1	21	0	How has working in the warehouse changed Lucius?	3	Vpl	Simple	0	0	96	filler	is	filler	0	filler	filler	6	are	Part1	Dark $ storage boxes $ all $ he $ dreams about $ anymore.	1	3	3	1642	a	present	2	 anymore.
XP2List2	104	1	22	0	What will we put in the salad?	1	Vsg	Simple	0	0	60	filler	is	filler	0	filler	filler	4	are	Part1	Half $ of $ the lettuce $ already wilted.	1	1	1	941	a	present	3	 already wilted.
XP2List2	104	1	23	0	Do you have any candy to tide me over until dinner?	1	Vsg	test	1	0	7	test	is	long	2	dish	containers	5	are	Part1	A dish $ of $ gumdrops $ on the $ end table.	1	1	1	1342	a	present	3	 end table.
XP2List2	104	1	24	0	What is causing all this uproar at the sweet sixteen party?	1	Vsg	MA	0	0	65	filler	is	filler	0	filler	filler	5	are	Part1	The $ birthday girl $ Andrea $ receiving an $ expensive gift.	1	1	1	1264	a	present	3	 expensive gift.
XP2List2	104	1	25	0	What was the state of preparations when you left?	3	Vpl	MA	0	0	84	filler	was	filler	0	filler	filler	6	were	Part1	The masons $ Steve $ and Melinda $ stacking bricks $ at the $ construction site.	1	3	3	1739	a	past	3	 construction site.
XP2List2	104	1	26	0	Does she have any extra hockey equipment or pucks to bring to practice?	3	Vsg	test	1	0	9	test	is	short	2	pile	collections	3	are	Part1	A pile $ beside the $ hockey mask.	0	3	1	1721	a	present	1	 hockey mask.
XP2List2	104	1	27	0	How will your wife spend the evening while you're away?	1	Vsg	MA	0	0	69	filler	is	filler	0	filler	filler	4	are	Part1	Martina $ going $ to a $ jazz concert.	1	1	1	1773	a	present	1	 jazz concert.
XP2List2	104	1	28	0	How do you ensure the children are safe?	3	Vpl	Simple	0	0	92	filler	is	filler	0	filler	filler	5	are	Part1	Electrical sockets $ always $ covered $ in the $ playroom.	0	3	1	1508	a	present	1	 playroom.
XP2List2	104	1	29	0	Has the lost heirloom been found yet?	1	Vsg	RC	0	0	48	filler	is	filler	0	filler	filler	5	are	Part1	The watch $ that $ Liz inherited $ still $ missing today.	1	1	1	1233	a	present	3	 missing today.
XP2List2	104	1	30	0	Did you notice any patterns in the exam results?	3	Vpl	RC	0	0	41	filler	was	filler	0	filler	filler	5	were	Part1	Many students $ who $ turned in $ the test $ inattentive.	1	3	3	1779	a	past	4	 inattentive.
XP2List2	104	1	31	0	Do we have anyone to give a written testimony on the car accident?	1	Vsg	test	1	1	15	test	is	long	2	crowd	collections	5	are	Part1	A crowd $ of $ onlookers $ across $ the street.	1	1	1	1330	a	present	3	 the street.
XP2List2	104	1	32	0	Was it the dry leaves that Roberto was raking?	3	Vpl	RC	0	0	37	filler	was	filler	0	filler	filler	6	were	Part1	The grass $ clippings $ what $ Roberto $ was raking $ yesterday.	1	3	3	1720	a	past	2	 yesterday.
XP2List2	104	1	33	0	Do you have anything to juggle around here, like balls?	3	Vsg	test	1	0	1	test	is	short	2	tube	containers	3	are	Part1	A tube $ by the $ tennis racket.	0	3	1	926	a	present	1	 tennis racket.
XP2List2	104	1	34	0	Does Uncle Roger have any valuables, like coins, in his home to insure?	3	Vsg	test	0	0	13	test	is	short	2	collection	collections	3	are	Part1	A collection $ on the $ closet shelf.	0	3	1	1356	a	present	1	 closet shelf.
XP2List2	104	1	35	0	What made everyone on Sesame Street so sad?	1	Vsg	Simple	0	0	89	filler	was	filler	0	filler	filler	7	were	Part1	Neither $ Bert nor $ Ernie $ able $ to find $ the rubber $ ducky.	0	1	3	1337	a	past	3	 ducky.
XP2List2	104	1	36	0	Do they have anything to serve the coffee in?	1	Vpl	test	1	0	23	test	is	long	2	variety	measure	5	are	Part1	A variety $ of $ mugs $ in $ the dishwasher.	0	1	3	3007	a	present	3	 the dishwasher.
XP2List2	104	1	37	0	Do we know why we couldn't go back to library?	1	Vsg	RC	0	0	45	filler	was	filler	0	filler	filler	4	were	Part1	One DVD $ that $ Kayleigh borrowed $ past due.	1	1	1	1295	a	past	3	 past due.
XP2List2	104	1	38	0	Why did one student get points taken off his essay?	1	Vsg	RC	0	0	44	filler	is	filler	0	filler	filler	6	are	Part1	The author $ that Russell $ cited $ thought $ to be $ a fraud.	1	1	1	1471	a	present	3	 a fraud.
XP2List2	104	1	39	0	Why has the laptop been running since yesterday?	3	Vpl	RC	0	0	40	filler	is	filler	0	filler	filler	5	are	Part1	The computer $ simulations $ that ran $ all night $ complex.	1	3	3	1783	a	present	4	 complex.
XP2List2	104	1	40	0	What are the former members of the jazz group up to now?	3	Vpl	MA	0	0	68	filler	is	filler	0	filler	filler	5	are	Part1	The pianists $ Alexander $ and Ginnie $ learning $ classical sonatas.	1	3	3	1956	a	present	3	 classical sonatas.
XP2List2	104	1	41	0	Do you have a reason for switching to the new typesetting program?	1	Vsg	Simple	0	0	61	filler	was	filler	0	filler	filler	4	were	Part1	This $ word processor $ known to $ crash often.	1	1	1	1218	a	past	2	 crash often.
XP2List2	104	1	42	0	Have you read anything interesting on the NASA website lately?	1	Vsg	Simple	0	0	64	filler	is	filler	0	filler	filler	5	are	Part1	Another $ asteroid $ expected to $ miss Earth $ this week.	1	1	1	984	a	present	2	 this week.
XP2List2	104	1	43	0	How did you find out the couple were expecting a baby?	3	Vpl	MA	0	0	80	filler	was	filler	0	filler	filler	5	were	Part1	Sven and $ Paula $ picking out $ a jogging $ stroller.	1	3	3	1758	a	past	2	 stroller.
XP2List2	104	1	44	0	Does Lisa have any information, maybe some pamphlets, to give renters about the apartment complex?	3	Vpl	test	0	0	29	test	is	short	2	several	quant	3	are	Part1	Several $ in the $ front office.	1	3	3	1705	a	present	1	 front office.
XP2List2	104	1	45	0	What made Yi so upset?	1	Vsg	RC	0	0	52	filler	is	filler	0	filler	filler	7	are	Part1	The upholstery $ that $ she $ just cleaned $ now covered $ in $ her milkshake.	1	1	1	766	a	present	4	 her milkshake.
XP2List2	104	1	46	0	What caused the delay at the construction site?	3	Vpl	Simple	0	0	53	filler	was	filler	0	filler	filler	4	were	Part1	Two surveyors $ carefully $ packing up $ their equipment.	1	3	3	2071	a	past	1	 their equipment.
XP2List2	104	1	47	0	Do you have anything to help with my fever?	1	Vsg	test	1	0	3	test	is	long	2	bottle	containers	5	are	Part1	A bottle $ of $ pills $ by $ the tissues.	1	1	1	765	a	present	3	 the tissues.
XP2List2	104	1	48	0	How did Michaela and Frank not see the racoon in their backyard?	3	Vpl	MA	0	0	72	filler	is	filler	0	filler	filler	6	are	Part1	They $ watching $ a small $ squirrel $ in $ a tree.	1	3	3	1013	a	present	1	 a tree.
XP2List2	104	1	49	0	Does John have anything left to munch on during the second half?	1	Vpl	test	0	0	27	test	is	long	2	more	quant	4	are	Part1	More chips $ on $ the dining $ room table.	0	1	3	1439	a	present	1	 room table.
XP2List2	104	1	50	0	Who is planning a celebration for whom?	1	Vsg	MA	0	0	73	filler	is	filler	0	filler	filler	8	are	Part1	The $ house guest $ Roberta $ planning $ a birthday $ party $ for $ her host.	1	1	1	1227	a	present	3	 her host.
XP2List2	104	1	51	0	Who was your favorite customer today at the toystore?	1	Vsg	MA	0	0	77	filler	was	filler	0	filler	filler	7	were	Part1	The new $ grandpa Olaf $ looking for $ a cute $ teddy bear $ for his $ granddaughter.	1	1	1	2305	a	past	2	 granddaughter.
XP2List2	104	1	52	0	Why can't we finish the installation today?	1	Vsg	Simple	0	0	93	filler	is	filler	0	filler	filler	3	are	Part1	This cable $ two meters $ too short.	1	1	1	1878	a	present	1	 too short.
XP2List2	104	1	53	0	What made you change your mind about buying the 4x4?	3	Vpl	Simple	0	0	58	filler	is	filler	0	filler	filler	5	are	Part2	Pick-up $ trucks $ not known $ for fuel $ efficiency.	1	3	3	1012	b	present	2	 efficiency.
XP2List2	104	1	54	0	Does Trevor have have any sports equipment around here?	1	Vpl	test	0	0	32	test	was	long	2	five	quant	3	were	Part2	Five baseballs $ in $ the bag.	0	1	3	1828	b	past	1	 the bag.
XP2List2	104	1	55	0	Do we have anywhere more private to talk, with not so many people?	3	Vpl	test	1	1	30	test	was	short	2	fewer	quant	3	were	Part2	Fewer $ in $ the courtyard.	1	3	3	1484	b	past	1	 the courtyard.
XP2List2	104	1	56	0	What were the girls doing when the news arrived?	3	Vpl	MA	0	0	78	filler	was	filler	0	filler	filler	5	were	Part2	Nicole and $ Montana $ playing with $ a new $ dollhouse.	1	3	3	1359	b	past	2	 dollhouse.
XP2List2	104	1	57	0	How did Dianne and Liz end up getting coffee together?	3	Vpl	Simple	0	0	90	filler	was	filler	0	filler	filler	4	were	Part2	They $ realized their $ appointments $ cancelled.	1	3	3	1137	b	past	3	 cancelled.
XP2List2	104	1	58	0	Are the yipping dogs already fully grown? 	3	Vpl	RC	0	0	34	filler	is	filler	0	filler	filler	5	are	Part2	Those $ schnauzers $ that chased $ Nicholas $ still puppies.	1	3	3	1054	b	present	4	 still puppies.
XP2List2	104	1	59	0	Do you have anything, any bags, to carry the groceries home in?	3	Vpl	test	1	0	18	test	was	short	2	number	measure	3	were	Part2	A number $ in $ the pantry.	1	3	3	1196	b	past	1	 the pantry.
XP2List2	104	1	60	0	Why was Parker making the OK sign?	1	Vsg	RC	0	0	51	filler	was	filler	0	filler	filler	8	were	Part2	Some $ rubber cement $ that $ he $ using $ was stuck $ on $ his fingers.	1	1	1	1938	b	past	4	 his fingers.
XP2List2	104	1	61	0	Does Grandpa have any childhood mementos to show us?	1	Vsg	test	0	0	4	test	was	long	2	shoebox	containers	5	were	Part2	A shoebox $ of $ pictures $ in $ the attic.	0	1	3	1115	b	past	3	 the attic.
XP2List2	104	1	62	0	Do we have any recipes for coffee cake?	1	Vpl	test	1	0	20	test	was	long	2	handful	measure	5	were	Part2	A handful $ of $ cookbooks $ in the $ kitchen cabinet.	0	1	3	2361	b	past	3	 kitchen cabinet.
XP2List2	104	1	63	0	What were the agile beasts seeking?	3	Vpl	RC	0	0	39	filler	was	filler	0	filler	filler	7	were	Part2	The $ mountain goats $ that $ scaled $ the cliff $ searching $ for food.	1	3	3	1014	b	past	5	 for food.
XP2List2	104	1	64	0	Why is Tanya typing so furiously at her computer?	1	Vsg	MA	0	0	71	filler	is	filler	0	filler	filler	4	are	Part2	She $ creating $ a new $ computer game.	1	1	1	1263	b	present	1	 computer game.
XP2List2	104	1	65	0	Do you know what type of firewood we'll have?	1	Vsg	RC	0	0	47	filler	was	filler	0	filler	filler	5	were	Part2	One $ tree $ that $ Katie felled $ a pine.	1	1	1	1345	b	past	4	 a pine.
XP2List2	104	1	66	0	Where was the guard dog last seen?	1	Vsg	RC	0	0	43	filler	was	filler	0	filler	filler	8	were	Part2	A Doberman $ that $ Marge saw $ in the $ park $ later $ sitting outside $ a bank.	0	1	3	1226	b	past	5	 a bank.
XP2List2	104	1	67	0	Do we have any evidence the vermin poison is working?	3	Vpl	RC	0	0	42	filler	is	filler	0	filler	filler	6	are	Part2	Some mice $ that $ Amanda found $ in the $ shed $ sick.	1	3	3	1521	b	present	5	 sick.
XP2List2	104	1	68	0	Who is playing the next three songs?	1	Vsg	Simple	0	0	91	filler	is	filler	0	filler	filler	5	are	Part2	Either Fumiko $ or Ed $ scheduled $ to perform $ next.	0	1	3	1134	b	present	2	 next.
XP2List2	104	1	69	0	Hasn't anyone cleaned around here today?	3	Vpl	RC	0	0	38	filler	is	filler	0	filler	filler	5	are	Part2	These $ picture frames $ that $ Yanina bought $ quite dusty.	1	3	3	1014	b	present	4	 quite dusty.
XP2List2	104	1	70	0	Do they have anything, like magazines, to read while we wait?	3	Vpl	test	1	0	22	test	was	short	2	smattering	measure	3	were	Part2	A smattering $ in $ the basement.	0	3	1	1477	b	past	1	 the basement.
XP2List2	104	1	71	0	How hard will it be to get my car running again?	1	Vsg	Simple	0	0	95	filler	is	filler	0	filler	filler	5	are	Part2	Any trained $ professional $ able $ to repair $ that damage.	1	1	1	2062	b	present	2	 that damage.
XP2List2	104	1	72	0	Do we have any artwork to sell at the flea market?	1	Vpl	test	1	0	28	test	was	long	2	some	quant	2	were	Part2	Some paintings $ in storage.	0	1	3	1722	b	past	1	 in storage.
XP2List2	104	1	73	0	Do we know what was going on backstage?	1	Vsg	MA	0	0	83	filler	was	filler	0	filler	filler	5	were	Part2	The presenter $ Mariko $ busily $ readying her $ slides.	1	1	1	961	b	past	2	 slides.
XP2List2	104	1	74	0	Why couldn't Emma study for chemistry in the library?	3	Vpl	RC	0	0	35	filler	was	filler	0	filler	filler	7	were	Part2	The notes $ that $ she brought $ actually $ for $ a different $ class.	1	3	3	1125	b	past	3	 class.
XP2List2	104	1	75	0	What caught the biologists' attention?	1	Vsg	Simple	0	0	59	filler	was	filler	0	filler	filler	5	were	Part2	Some green $ lichen $ growing $ on $ the stump.	0	1	3	1486	b	past	2	 the stump.
XP2List2	104	1	76	0	Do they have any old timepieces, clocks for example, in this store to sell at auction?	3	Vpl	test	1	0	26	test	was	short	2	many	quant	3	were	Part2	Many $ in the $ antiques department.	1	3	3	1155	b	past	1	 antiques department.
XP2List2	104	1	77	0	What was going on outside the rural train station?	3	Vpl	Simple	0	0	55	filler	was	filler	0	filler	filler	6	were	Part2	The $ taxi drivers $ waiting $ impatiently $ for new $ customers.	1	3	3	1081	b	past	2	 customers.
XP2List2	104	1	78	0	Why has the supervisor received so many complaints lately?	3	Vpl	Simple	0	0	86	filler	was	filler	0	filler	filler	7	were	Part2	Several workers $ of $ the belief $ that $ their pay $ was $ too low.	1	3	3	973	b	past	1	 too low.
XP2List2	104	1	79	0	Did your relative bequeath you anything after her passing?	1	Vsg	Simple	0	0	62	filler	is	filler	0	filler	filler	8	are	Part2	A tattered $ tablecloth $ all $ that $ Aunt Alice $ left us $ in $ her will.	1	1	1	1207	b	present	2	 her will.
XP2List2	104	1	80	0	Do we have anything, like blankets to give to charity this December?	3	Vsg	test	1	0	10	test	was	short	2	heap	collections	3	were	Part2	A heap $ in $ the closet.	0	3	1	1916	b	past	1	 the closet.
XP2List2	104	1	81	0	Do you have any livestock to show the second graders on their visit to the farm?	1	Vsg	test	1	1	12	test	was	long	2	group	collections	5	were	Part2	A group $ of $ llamas $ across $ the pasture.	0	1	3	1041	b	past	3	 the pasture.
XP2List2	104	1	82	0	Do you know what that fancy couple you know is doing tonight?	3	Vpl	MA	0	0	70	filler	is	filler	0	filler	filler	7	are	Part2	The epicures $ Gary and $ Victoria $ sharing $ a fine $ wine $ with friends.	1	3	3	1569	b	present	3	 with friends.
XP2List2	104	1	83	0	What were the kids doing before the rain started?	3	Vpl	MA	0	0	82	filler	was	filler	0	filler	filler	5	were	Part2	The $ fifth graders $ Julian and $ Richard $ playing tag.	1	3	3	1004	b	past	4	 playing tag.
XP2List2	104	1	84	0	Do the Carlisles have any dinnerware or dishes to bring to the picnic?	3	Vsg	test	0	0	6	test	was	short	2	tub	containers	3	were	Part2	A tub $ by $ the dishwasher.	0	3	1	1010	b	past	1	 the dishwasher.
XP2List2	104	1	85	0	Where was the interior designer when you talked to her on the phone?	1	Vsg	MA	0	0	79	filler	was	filler	0	filler	filler	4	were	Part2	Manuela $ furnishing $ a fancy $ apartment.	1	1	1	1281	b	past	1	 apartment.
XP2List2	104	1	86	0	Do they have anything to light these candles with?	1	Vsg	test	1	0	8	test	was	long	2	pack	containers	5	were	Part2	A pack $ of $ matches $ in the $ game room.	0	1	3	1666	b	past	3	 game room.
XP2List2	104	1	87	0	How are the adventerous newly-weds spending their honeymoon?	3	Vpl	MA	0	0	66	filler	is	filler	0	filler	filler	5	are	Part2	Julia and $ George $ exploring $ a remote $ valley.	1	3	3	2185	b	present	2	 valley.
XP2List2	104	1	88	0	What are the kids doing in the den?	3	Vpl	MA	0	0	74	filler	is	filler	0	filler	filler	5	are	Part2	Sofia and $ Kyle $ folding $ a small $ paper boat.	1	3	3	1045	b	present	2	 paper boat.
XP2List2	104	1	89	0	Where is the other cookie that was dropped?	1	Vsg	RC	0	0	46	filler	is	filler	0	filler	filler	6	are	Part2	The cookie $ that $ Oliver dropped $ under $ the $ coffee table.	1	1	1	960	b	present	3	 coffee table.
XP2List2	104	1	90	0	Don't you think it's strange to see such animals here?	3	Vpl	Simple	0	0	54	filler	is	filler	0	filler	filler	4	are	Part2	Adult caribou $ seldom $ found $ in Montana. 	0	3	1	833	b	present	1	 in Montana. 
XP2List2	104	1	91	0	Do you have anything to match this shirt and jacket?	1	Vpl	test	1	0	24	test	was	long	2	ton	measure	5	were	Part2	A ton $ of $ ties $ on the $ far table.	0	1	3	1553	b	past	3	 far table.
XP2List2	104	1	92	0	Do you forsee any problems for today's pottery class?	1	Vsg	RC	0	0	50	filler	is	filler	0	filler	filler	7	are	Part2	A pot $ that $ Rachel $ about to $ glaze $ is $ already cracked.	1	1	1	1371	b	present	3	 already cracked.
XP2List2	104	1	93	0	Does Maria have any plants or flowers around the house to water?	3	Vsg	test	0	0	2	test	was	short	2	pot	containers	3	were	Part2	A pot $ on the $ back porch.	0	3	1	1903	b	past	1	 back porch.
XP2List2	104	1	94	0	What made the Stevens cry at the airport?	1	Vsg	Simple	0	0	63	filler	was	filler	0	filler	filler	4	were	Part2	Their daughter $ entering $ the $ Peace Corps.	1	1	1	1366	b	past	1	 Peace Corps.
XP2List2	104	1	95	0	Do we have anyone to give this extra ice cream to?	1	Vsg	test	1	1	16	test	was	long	2	troop	collections	5	were	Part2	A troop $ of $ preschoolers $ at $ the park.	0	1	3	1142	b	past	3	 the park.
XP2List2	104	1	96	0	What does the forecast look like?	3	Vpl	Simple	0	0	94	filler	is	filler	0	filler	filler	5	are	Part2	Two $ inches of $ snow $ predicted $ for tonight.	0	3	1	949	b	present	3	 for tonight.
XP2List2	104	1	97	0	Does Cecilia have any documentaries or DVDs to watch this evening?	3	Vsg	test	0	0	14	test	was	short	2	set	collections	3	were	Part2	A set $ by $ the television.	0	3	1	874	b	past	1	 the television.
XP2List2	104	1	98	0	What surprised you at the parent-teacher conferences?	1	Vsg	Simple	0	0	87	filler	was	filler	0	filler	filler	7	were	Part2	Not $ a single $ parent $ upset $ by $ the new $ school dresscode.	1	1	1	944	b	past	3	 school dresscode.
XP2List2	104	1	99	0	Why is the rest of the team jealous?	1	Vsg	MA	0	0	67	filler	is	filler	0	filler	filler	4	are	Part2	Caroline $ training $ with a $ new coach.	1	1	1	1066	b	present	1	 new coach.
XP2List2	104	1	100	0	What is the fertilizer doing there in the garden?	1	Vsg	MA	0	0	75	filler	was	filler	0	filler	filler	6	were	Part2	The gardener $ Ted $ planting $ a rosebush $ by $ the begonias.	1	1	1	958	b	past	2	 the begonias.
XP2List1	105	1	1	0	How much natural light does your new office have?		?	?	?	?	training3	?	is	?	?	?	training	4	are	Entrainement	My $ ficus tree $ thriving $ there.	0		1	13247	?	?	2	 there.
XP2List1	105	1	2	0	Where can I find the keys to the cabinets?		?	?	?	?	training1	?	is	?	?	?	training	5	are	Entrainement	The key $ to $ the cabinets $ in $ the drawer.	0		1	1769	?	?	3	 the drawer.
XP2List1	105	1	3	0	What did you like best about living in New England?		?	?	?	?	training2	?	was	?	?	?	training	4	were	Entrainement	The leaves $ in the $ fall $ beautiful.	0		1	10427	?	?	3	 beautiful.
XP2List1	105	1	4	0	Why couldn't you park your car inside last night?		?	?	?	?	training4	?	was	?	?	?	training	4	were	Entrainement	Some $ wooden table $ in $ the garage.	0		3	1962	?	?	2	 the garage.
XP2List1	105	1	5	0	What caused the delay at the construction site?	3	Vpl	Simple	0	0	53	filler	was	filler	0	filler	filler	4	were	Part1	Two surveyors $ carefully $ packing up $ their equipment.	1	3	3	1909	a	past	1	 their equipment.
XP2List1	105	1	6	0	Do we have any desserts to look forward to at the potluck?	1	Vpl	test	1	0	25	test	is	long	1	all	quant	3	are	Part1	All pies $ in $ the refrigerator.	0	1	3	1468	a	present	1	 the refrigerator.
XP2List1	105	1	7	0	Do we know why we couldn't go back to library?	1	Vsg	RC	0	0	45	filler	was	filler	0	filler	filler	4	were	Part1	One DVD $ that $ Kayleigh borrowed $ past due.	1	1	1	1685	a	past	3	 past due.
XP2List1	105	1	8	0	What was the state of preparations when you left?	3	Vpl	MA	0	0	84	filler	was	filler	0	filler	filler	6	were	Part1	The masons $ Steve $ and Melinda $ stacking bricks $ at the $ construction site.	1	3	3	2067	a	past	3	 construction site.
XP2List1	105	1	9	0	Does Lila have anything to remind her of her travels?	1	Vpl	test	0	0	17	test	is	long	1	lot	measure	5	are	Part1	A lot $ of $ postcards $ in the $ desk drawer.	0	1	3	7435	a	present	3	 desk drawer.
XP2List1	105	1	10	0	What were the academics doing in the cafe?	3	Vpl	MA	0	0	76	filler	was	filler	0	filler	filler	6	were	Part1	The professors $ Henry $ and Hilary $ reading $ a philosophical $ tome.	1	3	3	2625	a	past	3	 tome.
XP2List1	105	1	11	0	How has Susanne spent the last few months?	1	Vsg	MA	0	0	81	filler	was	filler	0	filler	filler	4	were	Part1	The documentarian $ shooting $ a long, $ boring film.	1	1	1	1496	a	past	1	 boring film.
XP2List1	105	1	12	0	Why can't we finish the installation today?	1	Vsg	Simple	0	0	93	filler	is	filler	0	filler	filler	3	are	Part1	This cable $ two meters $ too short.	1	1	1	996	a	present	1	 too short.
XP2List1	105	1	13	0	Do they have anything to serve the coffee in, like mugs?	3	Vpl	test	1	0	23	test	is	short	1	variety	measure	3	are	Part1	A variety $ in $ the dishwasher.	0	3	1	4081	a	present	1	 the dishwasher.
XP2List1	105	1	14	0	Where are the vicious rodents now?	3	Vpl	RC	0	0	36	filler	is	filler	0	filler	filler	6	are	Part1	Two $ squirrels $ that attacked $ a chipmunk $ in $ the oak.	1	3	3	2287	a	present	4	 the oak.
XP2List1	105	1	15	0	Who was your favorite customer today at the toystore?	1	Vsg	MA	0	0	77	filler	was	filler	0	filler	filler	7	were	Part1	The new $ grandpa Olaf $ looking for $ a cute $ teddy bear $ for his $ granddaughter.	1	1	1	2102	a	past	2	 granddaughter.
XP2List1	105	1	16	0	Does she have any extra hockey equipment to bring to practice?	1	Vsg	test	1	0	9	test	is	long	1	pile	collections	5	are	Part1	A pile $ of $ pucks $ beside the $ hockey mask.	1	1	1	11115	a	present	3	 hockey mask.
XP2List1	105	1	17	0	Why did one student get points taken off his essay?	1	Vsg	RC	0	0	44	filler	is	filler	0	filler	filler	6	are	Part1	The author $ that Russell $ cited $ thought $ to be $ a fraud.	1	1	1	1044	a	present	3	 a fraud.
XP2List1	105	1	18	0	Does Uncle Roger have any valuables in his home to insure?	1	Vsg	test	0	0	13	test	is	long	1	collection	collections	5	are	Part1	A collection $ of $ coins $ on the $ closet shelf.	1	1	1	2313	a	present	3	 closet shelf.
XP2List1	105	1	19	0	Why has the laptop been running since yesterday?	3	Vpl	RC	0	0	40	filler	is	filler	0	filler	filler	5	are	Part1	The computer $ simulations $ that ran $ all night $ complex.	1	3	3	2986	a	present	4	 complex.
XP2List1	105	1	20	0	Do you have any candy or gumdrops to tide me over until dinner?	3	Vsg	test	1	0	7	test	is	short	1	dish	containers	3	are	Part1	A dish $ on the $ end table.	0	3	1	921	a	present	1	 end table.
XP2List1	105	1	21	0	Does Barbara have anything to file these documents in?	1	Vpl	test	0	0	21	test	is	long	1	bunch	measure	5	are	Part1	A bunch $ of $ folders $ on $ the shelf.	0	1	3	2614	a	present	3	 the shelf.
XP2List1	105	1	22	0	Do you have anything to juggle around here?	1	Vsg	test	1	0	1	test	is	long	1	tube	containers	5	are	Part1	A tube $ of $ balls $ by the $ tennis racket.	1	1	1	2796	a	present	3	 tennis racket.
XP2List1	105	1	23	0	Who had been assigned to catch the murders?	3	Vpl	RC	0	0	33	filler	was	filler	0	filler	filler	6	were	Part1	The detectives $ who $ had done $ many investigations $ on $ the case.	1	3	3	1387	a	past	4	 the case.
XP2List1	105	1	24	0	Do you have anything to help with my fever, like pills?	3	Vsg	test	1	0	3	test	is	short	1	bottle	containers	3	are	Part1	A bottle $ by $ the tissues.	0	3	1	659	a	present	1	 the tissues.
XP2List1	105	1	25	0	Do you have a reason for switching to the new typesetting program?	1	Vsg	Simple	0	0	61	filler	was	filler	0	filler	filler	4	were	Part1	This $ word processor $ known to $ crash often.	1	1	1	1402	a	past	2	 crash often.
XP2List1	105	1	26	0	Has the lost heirloom been found yet?	1	Vsg	RC	0	0	48	filler	is	filler	0	filler	filler	5	are	Part1	The watch $ that $ Liz inherited $ still $ missing today.	1	1	1	905	a	present	3	 missing today.
XP2List1	105	1	27	0	Do you have anything to mend the tear in my shirt?	1	Vsg	test	1	0	5	test	is	long	1	matchbox	containers	5	are	Part1	A matchbox $ of $ needles $ by the $ sewing machine.	1	1	1	1573	a	present	3	 sewing machine.
XP2List1	105	1	28	0	Who is planning a celebration for whom?	1	Vsg	MA	0	0	73	filler	is	filler	0	filler	filler	8	are	Part1	The $ house guest $ Roberta $ planning $ a birthday $ party $ for $ her host.	1	1	1	790	a	present	3	 her host.
XP2List1	105	1	29	0	Have you read anything interesting on the NASA website lately?	1	Vsg	Simple	0	0	64	filler	is	filler	0	filler	filler	5	are	Part1	Another $ asteroid $ expected to $ miss Earth $ this week.	1	1	1	1178	a	present	2	 this week.
XP2List1	105	1	30	0	Do we have anyone, like onlookers, to give a written testimony on the car accident?	3	Vsg	test	1	1	15	test	is	short	1	crowd	collections	3	are	Part1	A crowd $ across $ the street.	0	3	1	2059	a	present	1	 the street.
XP2List1	105	1	31	0	Does John have anything left to munch on, like chips, during the second half?	3	Vpl	test	0	0	27	test	is	short	1	more	quant	4	are	Part1	More $ on $ the dining $ room table.	0	3	1	1213	a	present	1	 room table.
XP2List1	105	1	32	0	What are the former members of the jazz group up to now?	3	Vpl	MA	0	0	68	filler	is	filler	0	filler	filler	5	are	Part1	The pianists $ Alexander $ and Ginnie $ learning $ classical sonatas.	1	3	3	452	a	present	3	 classical sonatas.
XP2List1	105	1	33	0	Was the winter accessory you borrowed comfortable?	1	Vsg	RC	0	0	49	filler	was	filler	0	filler	filler	5	were	Part1	The scarf $ that $ Laura knitted $ warm $ but itchy.	1	1	1	892	a	past	3	 but itchy.
XP2List1	105	1	34	0	What startled the backpackers out of their slumber?	3	Vpl	Simple	0	0	57	filler	was	filler	0	filler	filler	5	were	Part1	Numerous $ coyotes $ heard howling $ in $ the canyon.	1	3	3	1110	a	past	2	 the canyon.
XP2List1	105	1	35	0	Do they have any food, some sandwiches maybe, for the guests to eat?	3	Vsg	test	1	0	11	test	is	short	1	stack	collections	3	are	Part1	A stack $ on the $ serving platter.	0	3	1	2880	a	present	1	 serving platter.
XP2List1	105	1	36	0	Why do you think the meat shop was so clean all the time?	1	Vsg	Simple	0	0	85	filler	was	filler	0	filler	filler	5	were	Part1	The butcher $ fanatical about $ keeping flies $ off $ the meat.	1	1	1	1357	a	past	1	 the meat.
XP2List1	105	1	37	0	Why couldn't Bill and Randy receive text messages?	3	Vpl	Simple	0	0	88	filler	was	filler	0	filler	filler	7	were	Part1	After being $ dropped, $ their $ cell phones $ never $ the same $ again.	1	3	3	832	a	past	4	 again.
XP2List1	105	1	38	0	How do you ensure the children are safe?	3	Vpl	Simple	0	0	92	filler	is	filler	0	filler	filler	5	are	Part1	Electrical sockets $ always $ covered $ in the $ playroom.	1	3	3	1045	a	present	1	 playroom.
XP2List1	105	1	39	0	Does Nathan have anything, like pans, to catch the dripping water from the leaky roof?	3	Vpl	test	0	0	31	test	is	short	1	both	quant	3	are	Part1	Both $ on $ the range.	1	3	3	1439	a	present	1	 the range.
XP2List1	105	1	40	0	What made Yi so upset?	1	Vsg	RC	0	0	52	filler	is	filler	0	filler	filler	7	are	Part1	The upholstery $ that $ she $ just cleaned $ now covered $ in $ her milkshake.	1	1	1	419	a	present	4	 her milkshake.
XP2List1	105	1	41	0	Was it the dry leaves that Roberto was raking?	3	Vpl	RC	0	0	37	filler	was	filler	0	filler	filler	6	were	Part1	The grass $ clippings $ what $ Roberto $ was raking $ yesterday.	1	3	3	1714	a	past	2	 yesterday.
XP2List1	105	1	42	0	How did you find out the couple were expecting a baby?	3	Vpl	MA	0	0	80	filler	was	filler	0	filler	filler	5	were	Part1	Sven and $ Paula $ picking out $ a jogging $ stroller.	1	3	3	1061	a	past	2	 stroller.
XP2List1	105	1	43	0	What will we put in the salad?	1	Vsg	Simple	0	0	60	filler	is	filler	0	filler	filler	4	are	Part1	Half $ of $ the lettuce $ already wilted.	1	1	1	2177	a	present	3	 already wilted.
XP2List1	105	1	44	0	What made everyone on Sesame Street so sad?	1	Vsg	Simple	0	0	89	filler	was	filler	0	filler	filler	7	were	Part1	Neither $ Bert nor $ Ernie $ able $ to find $ the rubber $ ducky.	0	1	3	7414	a	past	3	 ducky.
XP2List1	105	1	45	0	How will your wife spend the evening while you're away?	1	Vsg	MA	0	0	69	filler	is	filler	0	filler	filler	4	are	Part1	Martina $ going $ to a $ jazz concert.	1	1	1	826	a	present	1	 jazz concert.
XP2List1	105	1	46	0	How did Michaela and Frank not see the racoon in their backyard?	3	Vpl	MA	0	0	72	filler	is	filler	0	filler	filler	6	are	Part1	They $ watching $ a small $ squirrel $ in $ a tree.	1	3	3	1652	a	present	1	 a tree.
XP2List1	105	1	47	0	How has working in the warehouse changed Lucius?	3	Vpl	Simple	0	0	96	filler	is	filler	0	filler	filler	6	are	Part1	Dark $ storage boxes $ all $ he $ dreams about $ anymore.	1	3	3	1221	a	present	2	 anymore.
XP2List1	105	1	48	0	Did you notice any patterns in the exam results?	3	Vpl	RC	0	0	41	filler	was	filler	0	filler	filler	5	were	Part1	Many students $ who $ turned in $ the test $ inattentive.	1	3	3	1502	a	past	4	 inattentive.
